locationMagneticHeading(°),gyroRotationX(rad/s),gyroRotationY(rad/s),gyroRotationZ(rad/s),motionYaw(rad),motionRoll(rad),motionPitch(rad),motionUserAccelerationX(G),motionUserAccelerationY(G),motionUserAccelerationZ(G)
281.0715942,-0.022063224,-0.011672901,0.007479754,-2.219249244,0.041642639,0.033655495,0.10685616,0.004713662,-0.049728513
281.0527649,-0.001409877,-0.024590299,0.013719541,-2.219100643,0.041306526,0.033931431,0.088256434,0.004470978,0.047047317
281.0527649,-0.016697221,-0.004833371,0.00519636,-2.219016985,0.041132919,0.034084534,0.079442784,0.016480267,0.103644133
281.0527649,0.001760616,-0.014526478,0.007443801,-2.218915409,0.040879398,0.03433218,0.046523988,-0.015879963,-0.022162676
281.0527649,-0.002220277,-0.014292919,0.006295979,-2.218915409,0.040879398,0.03433218,0.046523988,-0.015879963,-0.022162676
281.0386658,-0.028918467,-0.005173723,0.00392976,-2.218729599,0.040618407,0.034655797,0.066820167,-0.028343011,-0.018089116
281.0386658,-0.023860859,-0.006905044,0.001135039,-2.218661137,0.040449188,0.034783407,0.095141992,-0.014146715,0.02889514
281.0276489,-0.038756184,0.013939518,-0.000475374,-2.218605272,0.040451227,0.034700881,0.106690742,-0.022240158,0.064206779
281.0276489,-0.020875188,-0.001264735,0.000790959,-2.218605272,0.040451227,0.034700881,0.106690742,-0.022240158,0.064206779
281.0276489,-0.059689429,0.01852335,-0.003399259,-2.218561248,0.040418993,0.034652304,0.084429815,-0.004817452,-0.045272052
281.0225525,-0.042530417,0.016004799,-0.000404534,-2.218547339,0.040501964,0.034430615,0.056514516,0.009227689,0.071889222
281.0225525,-0.042530417,0.016004799,-0.000404534,-2.218518843,0.040586613,0.034299611,0.082995251,0.040468674,0.052618444
281.0225525,-0.030648191,0.019237876,-0.006498646,-2.218534321,0.040721571,0.034202364,0.07500191,-0.004367404,0.118473232
281.0230103,-0.042928025,0.025984196,-0.00970376,-2.218574295,0.040897798,0.034141977,0.085644111,0.060299952,0.034346402
281.0276794,-0.0251959,0.028974127,-0.006388657,-2.218601243,0.041116076,0.034264814,0.07024356,0.042341202,0.120606422
281.0276794,-0.008255533,0.039427567,-0.0068121,-2.21864651,0.041415148,0.034492847,0.108702205,0.086148478,0.053203404
281.0276794,0.018734273,0.038290665,-0.010022541,-2.218728158,0.041715341,0.034894519,0.08017391,0.070971176,0.070480466
281.0276794,0.027514182,0.033300966,-0.010597517,-2.218810067,0.042010321,0.035414333,0.088500977,0.067905493,-0.042556763
281.0389404,0.017418671,0.033097766,-0.014422881,-2.21891095,0.042302002,0.03594337,0.06066807,0.024748921,0.040511429
281.0389404,0.01532809,0.037415016,-0.013191968,-2.219015299,0.042628977,0.036445919,-0.004858822,0.065458663,-0.028810799
281.0535278,0.026734142,0.034685276,-0.009407616,-2.219108182,0.042903503,0.037022227,0.043360081,0.02398207,0.016078174
281.0535278,0.018850653,0.042808715,-0.011561048,-2.219217641,0.04320919,0.037442336,0.002070084,-0.012600165,0.007321298
281.0535278,0.022301311,0.023306921,-0.011825766,-2.219310089,0.043412804,0.037858664,0.069250047,0.013283294,-0.095425367
281.0661011,0.003657053,0.029189045,-0.004492486,-2.219344813,0.043629987,0.038196436,-0.0435916,-0.016926862,-0.050098538
281.0661011,0.006951649,0.016686035,-0.009374061,-2.219412447,0.043737409,0.038547043,0.049624376,0.00196334,-0.020758748
281.0755005,-0.002493518,0.013028717,-0.01080045,-2.219501084,0.043817236,0.038800246,-0.162597924,0.020572986,-0.04684931
281.0755005,0.021309815,-0.000474309,0.00336011,-2.2194941,0.043770341,0.039272606,-0.312513649,0.067813754,-0.178274393
281.0755005,0.014448182,-0.006990798,-0.009950901,-2.219645778,0.043666552,0.039711028,0.233474046,-0.00682088,0.027798057
281.0925598,-0.01573289,0.012095544,-0.020828849,-2.219860523,0.043665935,0.039869678,0.295623988,-0.03930071,0.054143667
281.0925598,0.015508652,-0.003654123,0.008743957,-2.219795377,0.04355745,0.040260891,-0.328534484,0.06503354,-0.196431816
281.0916138,0.033519078,-0.027988225,0.003009106,-2.219795158,0.043315996,0.040841107,-0.110259317,0.044190649,-0.136859298
281.0916138,0.031065507,-0.022406239,0.011912586,-2.219787065,0.042995225,0.041407962,0.132936418,-0.064952984,-0.038968384
281.0917358,-0.009716277,-0.032294288,-0.004841094,-2.21980235,0.042584658,0.041709082,-0.120055407,-0.06565883,-0.038780212
281.0917358,0.006954579,-0.027717382,-0.005911685,-2.219793437,0.042278513,0.042049127,-0.142865896,0.025333796,-0.0776456
281.0917358,-0.005423528,-0.048091628,-0.006537261,-2.219816978,0.041880411,0.042335633,-0.01217271,-0.106215537,-0.019291341
281.0947571,-0.060194366,-0.028333105,-0.010153568,-2.219858335,0.041501469,0.042343753,-0.10896194,-0.077200457,-0.046299219
281.0947571,-0.008274442,-0.029581062,0.004265585,-2.219823183,0.041062574,0.042474159,-0.112398773,-0.041547555,-0.229956627
281.0947571,0.018980082,-0.046480149,-0.006128466,-2.219838488,0.040545193,0.042667407,0.064311892,0.035382215,-0.123986721
281.0944214,-0.039515983,-0.047174703,-0.018909775,-2.219904704,0.039974912,0.042809044,-0.028318547,-0.024443146,0.017067134
281.0944214,-0.029607426,-0.029312082,-0.015312377,-2.219999737,0.039506256,0.042947496,-0.097475737,0.028582308,0.06786108
281.107605,0.013799435,-0.041866757,-0.013795974,-2.220098033,0.039001732,0.043160548,-0.197801173,0.007753551,-0.093978226
281.107605,-0.001314536,-0.037985999,-0.001054346,-2.220116201,0.038484027,0.043500685,-0.131456733,-0.03958993,-0.053094625
281.107605,-0.013914217,-0.026674222,-0.016883908,-2.220245799,0.038086456,0.043676675,0.036711339,-0.001709428,0.068281293
281.1200867,0.022511167,-0.055126633,-0.014787734,-2.220367612,0.037551606,0.043960238,-0.113373101,-0.058142703,-0.096704185
281.1316833,-0.023156451,-0.041954909,-0.012856144,-2.220447542,0.036994035,0.044202834,-0.112815388,-0.057900041,-0.096694052
281.1316833,-0.019559586,-0.039840091,-0.01132163,-2.220528588,0.036461749,0.044322998,-0.03414287,-0.019556601,-0.034179866
281.1316833,-0.024897095,-0.051235758,-0.020442957,-2.220662123,0.035898941,0.044260864,-0.088145837,-0.035106406,-0.000739992
281.1316833,-0.077394389,-0.017576331,-0.016721722,-2.220769472,0.035487929,0.043942353,-0.221234635,-0.038720895,0.019628704
281.1472778,-0.055731438,-0.03547943,-0.013434582,-2.220876538,0.03499049,0.043527577,-0.054585062,-0.147259548,0.111415446
281.1472778,-0.118493892,-0.028790636,-0.025955435,-2.221045531,0.03461106,0.042626125,-0.2361224,-0.101698242,-0.079358876
281.1653748,-0.136107236,-0.029561887,-0.015737684,-2.221139523,0.034174402,0.04169024,-0.07835383,-0.064411178,-0.061543167
281.1653748,-0.118006535,-0.026519759,-0.017298562,-2.221240255,0.033769015,0.040809974,-0.079475641,-0.120559096,0.033019841
281.1653748,-0.116329007,-0.036817934,-0.016411465,-2.221343044,0.033306582,0.039955398,-0.144428864,-0.037628002,0.107242882
281.1796265,-0.130303949,-0.024251809,-0.018648518,-2.221461662,0.032893487,0.039089087,-0.196461409,0.104068175,0.09197098
281.1796265,-0.062279619,-0.024265658,-0.013489977,-2.221565565,0.032542003,0.038587037,-0.110554568,0.070210189,0.214514792
281.1954041,-0.088574342,-0.014193317,-0.0151936,-2.221682347,0.032303872,0.038127046,-0.097728521,0.053117894,0.140718162
281.1954041,-0.077878818,-0.007032876,-0.020842431,-2.221839623,0.032100061,0.037796859,-0.123465061,0.050620794,-0.000421822
281.1954041,-0.015351259,-0.021747639,-0.021897309,-2.222005491,0.031806609,0.037765,-0.13234219,0.010534599,0.018036664
281.2163696,-0.039536491,-0.015564312,-0.013278787,-2.222112745,0.031528264,0.037815133,-0.153960139,0.007197306,-0.04561609
281.2163696,-0.032513469,0.001074319,-0.012642292,-2.222203171,0.031303009,0.037931023,-0.115831912,-0.062129498,-0.02530396
281.2280273,0.028268922,-0.031799208,-0.011179151,-2.222274235,0.030953583,0.038219624,-0.138919652,-0.027096488,0.102595091
281.2280273,-0.050032273,-0.002939597,-0.013670006,-2.222340738,0.030724477,0.038174711,-0.18091166,0.051700741,-0.032329559
281.2347717,-0.040444095,-0.007221161,-0.008505604,-2.222378723,0.030499443,0.038142186,-0.156684577,0.033067733,-0.021197796
281.2347717,-0.021260547,-0.012907277,-0.012006862,-2.222432398,0.030276259,0.038107784,-0.134336188,0.035901979,-0.044505119
281.2347717,-0.052261073,-0.007575095,-0.003574228,-2.222457591,0.030021177,0.037944483,-0.11183396,0.052584294,-0.104229391
281.2414551,-0.045038048,-0.014103302,-0.01193975,-2.222523037,0.029744961,0.037772265,-0.178284615,0.026258428,-0.042767465
281.2414551,-0.050557449,-0.014311561,-0.00763475,-2.222550384,0.029489671,0.037535286,-0.094579265,-0.008341461,-0.04796946
281.2414551,-0.066927902,-0.004665059,-0.006303702,-2.222574566,0.029264918,0.037212525,-0.127939433,-0.044369958,-0.005027831
281.2456055,-0.073407635,-0.005278652,-0.014136326,-2.222636295,0.029080032,0.036774503,-0.262719005,0.007132705,-0.037782073
281.2456055,-0.06152701,-0.004146009,-0.000520115,-2.222616657,0.028909385,0.036432437,-0.064611673,0.045929246,-0.012557089
281.2459412,-0.067397952,0.019458387,-0.007086405,-2.222626881,0.028853789,0.03603195,-0.135342017,-0.021030303,0.074983478
281.2459412,-0.048971005,-0.003030145,-0.009439308,-2.222666731,0.028756483,0.035704132,-0.152685836,0.048267554,-0.029921412
281.2459412,-0.070791081,0.021148162,-0.00618093,-2.222692403,0.028778667,0.035382028,-0.120359719,0.028749701,-0.072635174
281.2497253,-0.051914062,0.013935523,-0.006972688,-2.222726538,0.028753284,0.03514164,-0.062854715,0.036809951,0.040701032
281.260498,-0.048077781,0.012292086,-0.01011362,-2.222792815,0.028766076,0.034911381,-0.109330751,0.053059045,0.032514751
281.260498,-0.058289405,0.035016838,-0.015329688,-2.222898463,0.028927472,0.034669016,-0.108698972,0.001882691,0.0199911
281.260498,-0.038648061,0.019912722,-0.009305884,-2.222980344,0.029015355,0.034520764,-0.102881864,-0.062901884,0.025044322
281.260498,-0.070223294,0.045098238,-0.014226073,-2.22306985,0.02927339,0.034228296,-0.08171691,-0.022316236,0.036628306
281.2711182,-0.017447699,0.037801176,-0.00830853,-2.223128803,0.029529239,0.034172257,-0.05505636,-0.009219237,0.104554772
281.2711182,-0.041047301,0.047722515,-0.016967531,-2.223221285,0.029864326,0.03407819,-0.154268563,0.029489741,-0.048726499
281.2823486,-0.045905706,0.058484081,-0.011579424,-2.223304795,0.030281065,0.034061115,-0.006278414,0.025627442,0.072065413
281.2823486,-0.014528609,0.055839296,-0.013979465,-2.223404834,0.030772865,0.03411477,-0.057520982,0.025040269,0.034801841
281.2823486,-0.037494645,0.071146883,-0.018522285,-2.223532089,0.031324663,0.034052576,-0.027631644,0.053283088,-0.011920333
281.2987366,-0.030949926,0.076698773,-0.013773602,-2.223662126,0.031912403,0.034046581,-0.093328729,0.040444445,-0.024771333
281.2987366,-0.022599585,0.065670885,-0.023817981,-2.223848762,0.032476277,0.034058619,-0.091176592,-0.02062444,-0.011346936
281.3209534,-0.050601393,0.061526477,-0.018030666,-2.223995959,0.032969999,0.033906919,-0.022883914,-0.073754758,-0.04982537
281.3209534,-0.057310961,0.06071794,-0.025069933,-2.224169245,0.033446895,0.033649311,-0.095687807,-0.057075273,0.061449885
281.3209534,-0.070183352,0.052952964,-0.021000091,-2.224309996,0.033842317,0.033237492,-0.183699697,-0.070945606,-0.106182754
281.3401794,-0.074653201,0.050003778,-0.012738965,-2.224396969,0.034232655,0.032781391,-0.027245499,-0.063787878,0.013295352
281.3401794,-0.094678573,0.045003962,-0.025118669,-2.22455432,0.034552218,0.032112405,-0.096932307,-0.025501635,0.003769338
281.3578186,-0.082623243,0.035571311,-0.016397616,-2.224674812,0.034833049,0.031491538,-0.154388532,0.043472394,-0.099446356
281.3578186,-0.081536934,0.039856602,-0.020528179,-2.224806654,0.035068637,0.030989535,-0.07448554,0.084885918,-0.071744204
281.3578186,-0.060508084,0.018358234,-0.018885806,-2.224954078,0.035136937,0.030696023,-0.012115203,0.064038597,-0.020010233
281.3786926,-0.067095943,0.026160497,-0.023901604,-2.225140659,0.035240765,0.030388988,-0.106579721,0.041987553,0.006545782
281.3786926,-0.041572209,0.006564958,-0.023435285,-2.225319342,0.035201116,0.03021801,-0.1421085,0.000602461,-0.072671294
281.3786926,-0.03389778,0.009996441,-0.015397598,-2.225438884,0.035128241,0.030173499,-0.107138798,-0.009055119,0.010935545
281.3994141,-0.036464799,0.007225156,-0.022688534,-2.225605003,0.035100233,0.030136885,-0.019098133,-0.007947356,0.085614145
281.3994141,-0.048169926,0.012648683,-0.014985607,-2.22572848,0.035074306,0.030023782,-0.111601621,-0.031131834,-0.048185885
281.3994141,-0.030460171,0.010737599,-0.01156744,-2.225814705,0.03502149,0.029955218,-0.074988812,-0.024562869,-0.030420721
281.414978,-0.021782527,-0.003822968,-0.011213772,-2.225897593,0.034942384,0.029891897,-0.122669764,0.020204078,-0.101079524
281.414978,-0.032666333,0.013738182,-0.011662515,-2.22596822,0.034969397,0.029849944,-0.039277032,0.073964581,-0.019566774
281.4248657,-0.058884356,0.009768475,-0.020242954,-2.226092914,0.034955246,0.029696413,-0.061876558,0.029560441,0.010849059
281.4248657,-0.049995255,0.023454992,-0.007161773,-2.226172187,0.035000033,0.029556737,-0.11285533,0.018342776,0.027849913
281.4248657,-0.035964925,0.02679646,-0.020441892,-2.226172187,0.035000033,0.029556737,-0.11285533,0.018342776,0.027849913
281.4391479,-0.045123268,0.012908874,-0.011275824,-2.226416291,0.035159411,0.029095461,-0.167550132,-0.065584436,-0.114033639
281.4526062,-0.045123268,0.012908874,-0.011275824,-2.226416291,0.035159411,0.029095461,-0.167550132,-0.065584436,-0.114033639
281.4526062,-0.065631472,0.023592144,-0.017880198,-2.22651237,0.03523374,0.028790632,-0.087119408,-0.016466295,-0.030592322
281.4526062,-0.062303856,-0.002901514,-0.01414831,-2.226596467,0.035175378,0.028554299,-0.039530147,-0.035272766,-0.051594853
281.4526062,-0.08370129,0.029721411,-0.01559121,-2.226692399,0.035225186,0.028176869,-0.126006126,0.002603285,0.056324244
281.461731,-0.026571423,0.000703075,-0.011170896,-2.226760264,0.035202953,0.02800566,-0.171256885,0.061376631,-0.0612849
281.461731,-0.051547348,0.030720362,-0.017055416,-2.226872969,0.035329956,0.027783141,-0.026547708,0.075619258,0.052761018
281.477417,-0.056787383,0.020186229,-0.022056567,-2.227035919,0.035357971,0.027568883,-0.111719981,0.045253456,0.024323583
281.477417,-0.034208037,0.004691424,-0.020222181,-2.227195135,0.035368968,0.027463712,-0.129095584,0.040555298,-0.082302332
281.477417,-0.046920903,0.02307629,-0.02226376,-2.227356671,0.035371233,0.027331892,-0.078301467,-0.035260223,-0.036720812
281.4978333,-0.0433283,-0.01196505,-0.017766479,-2.227492095,0.035182787,0.027141631,-0.047870241,-0.08552999,-0.053341031
281.4978333,-0.062503062,-0.004683968,-0.015116368,-2.227610766,0.035030293,0.02687665,-0.11851874,-0.032694615,0.003281593
281.5131836,-0.059673183,0.000345945,-0.015754728,-2.227722011,0.03486183,0.026635462,-0.148501843,-0.029640105,0.039701402
281.5131836,-0.049088448,-0.003547863,-0.017133446,-2.22783992,0.034689482,0.026347334,-0.052641839,-0.004461572,-0.004199743
281.5131836,-0.073528282,-0.000963265,-0.018628279,-2.227962699,0.03456414,0.025902248,-0.078807756,0.012396421,-0.018984795
281.5266113,-0.063456208,-0.012876384,-0.01773319,-2.228086264,0.034340778,0.025569177,-0.077226602,0.04036811,-0.114473283
281.5266113,-0.071536504,-0.001915878,-0.015519039,-2.228211246,0.03413997,0.025237303,-0.074203148,0.060833666,0.002470136
281.5455017,-0.042306978,-0.009720804,-0.022525016,-2.228382826,0.03393691,0.025010753,-0.06669125,0.052367169,-0.00542134
281.5455017,-0.046750195,-0.014449513,-0.023075758,-2.228537236,0.033719532,0.02486151,-0.084799737,-0.018659286,-0.06519419
281.5616455,-0.047129694,-0.005871737,-0.013519271,-2.228633259,0.033494201,0.024766152,-0.10148114,-0.004991302,0.069840789
281.5616455,-0.034388602,-0.016275376,-0.017312678,-2.228742432,0.033242458,0.024701069,-0.088244133,-0.020788256,0.001659274
281.5616455,-0.033275131,-0.001171258,-0.007235542,-2.228809902,0.033053529,0.024675656,-0.139370471,-0.00262521,0.030261159
281.5730591,-0.0356283,0.002182993,-0.017819211,-2.22892743,0.032919947,0.024524751,-0.091705829,0.032379992,0.014751077
281.5730591,-0.019287145,-0.028657477,-0.010961571,-2.228983644,0.032682633,0.024504103,-0.11048089,0.030375682,-0.131587684
281.5730591,-0.078462318,0.016521452,-0.020988639,-2.229099334,0.032616771,0.024315807,-0.069994614,0.051168047,0.077739179
281.5821533,-0.006645918,-0.005516738,-0.012248411,-2.22919781,0.032489441,0.024435758,-0.150296226,0.086001851,-0.092074692
281.5821533,-0.021756427,0.007541007,-0.012698485,-2.229298601,0.03241705,0.024534654,-0.092972748,0.024562145,0.028149247
281.5936279,-0.010253437,0.019030683,-0.01018446,-2.229382569,0.032377526,0.024700505,-0.131583586,0.013314571,0.015374839
281.5936279,0.00553032,-0.004107393,-0.014680409,-2.229466794,0.032291375,0.024933114,-0.102948025,0.017972443,-0.030023038
281.5936279,-0.03714231,0.012132829,-0.008342884,-2.229512338,0.032206854,0.025058912,-0.168140471,-0.013243198,0.055074811
281.6017761,-0.011358915,0.00700438,-0.012496084,-2.229604332,0.032118831,0.025228938,-0.059379175,0.014743753,-0.002772689
281.6123962,0.009443835,-0.011318169,-0.010720022,-2.22969598,0.031965264,0.025438009,-0.149389565,0.054259658,-0.058940709
281.6123962,-0.011028683,0.014332067,-0.009466472,-2.229771504,0.031902024,0.025613643,-0.069843128,0.104453757,0.008714318
281.6123962,-0.014077736,-0.001704689,-0.01485671,-2.229873772,0.031745556,0.025744109,-0.061095793,0.029526355,-0.042355239
281.6123962,-0.022706378,-0.002271676,-0.016196813,-2.229992668,0.031524605,0.025866657,-0.099967681,-0.0348804,-0.019676864
281.6243286,-0.015955796,-0.004091681,-0.010692858,-2.230082983,0.031374862,0.025981892,-0.099817798,-0.034765057,-0.019675136
281.6243286,-0.027690217,-0.008041681,-0.013185044,-2.230170856,0.031192594,0.025975001,-0.120143272,-0.056347884,0.027236283
281.631958,-0.044454817,0.008282697,-0.00512046,-2.230209459,0.031008991,0.025893739,-0.073176213,-0.039125752,-0.042900562
281.631958,-0.02143392,-0.007175355,-0.008096809,-2.230259404,0.030811009,0.025851968,-0.123835728,0.005342331,0.049513876
281.631958,-0.051651478,-0.003852795,-0.009585782,-2.230313084,0.030662577,0.025674831,-0.147491083,0.060584955,-0.032615066
281.6374817,-0.034783281,0.007846738,-0.007648066,-2.230363992,0.030576821,0.025622216,-0.02058954,0.055176459,0.007504284
281.6374817,-0.019064238,-0.003330283,-0.016352342,-2.230465881,0.03043881,0.025598923,-0.17766279,0.001487987,0.074663043
281.6478882,-0.056011871,0.011898471,-0.012720056,-2.230553619,0.030375396,0.025451897,-0.102449939,0.018644299,-0.045524776
281.6478882,-0.028466795,0.010826549,-0.014091584,-2.230656569,0.030323344,0.025455235,-0.100780427,-0.022352725,0.006905913
281.6478882,-0.020062124,-0.002639991,-0.016129967,-2.230776461,0.030223297,0.02550507,-0.149538934,-0.025385121,0.007060289
281.6594543,-0.043224968,0.018796857,-0.010600447,-2.230857018,0.030211741,0.025466818,-0.075232364,-0.050478339,-0.086322188
281.6594543,-0.004932174,-0.001376322,-0.014149109,-2.230941618,0.030113765,0.025534575,-0.134033218,-0.030314697,0.062009752
281.6717529,-0.048020788,0.003731621,-0.021440577,-2.23107094,0.030045426,0.025427783,-0.14298287,0.037510544,-0.032879889
281.6717529,-0.062648468,0.026707245,-0.01000017,-2.231155224,0.030112292,0.025229424,-0.100142211,0.021671748,-0.052621722
281.687561,-0.020178771,0.01276746,-0.022419555,-2.231312136,0.030082577,0.025136628,-0.129241586,0.02508839,0.025979519
281.687561,-0.057108026,0.017120663,-0.01685781,-2.231461644,0.030121126,0.024898059,-0.097450495,0.034004878,-0.078355253
281.687561,-0.051598478,0.022082133,-0.018811772,-2.231607902,0.030193917,0.024702598,-0.091023207,-0.026203586,-0.011152923
281.7084656,-0.040708281,0.007754326,-0.02545476,-2.231782306,0.030211111,0.02453812,-0.144995615,-0.044419363,0.023564339
281.7084656,-0.082478896,0.031061247,-0.022667762,-2.231952358,0.030309319,0.024259034,-0.144346401,-0.016134243,-0.114737451
281.7084656,-0.030313164,0.023637686,-0.013429789,-2.232076562,0.030359046,0.024127656,-0.077791624,-0.021362187,0.129145443
281.7266846,-0.050769705,0.018014953,-0.027956534,-2.232281521,0.03044719,0.023819283,-0.132140294,0.083599545,-0.001053095
281.7266846,-0.072253689,0.036078375,-0.021203555,-2.232462055,0.030586849,0.023522294,-0.104020961,0.084461942,-0.065579772
281.7542114,-0.042081408,0.024071515,-0.028497156,-2.232689894,0.030694919,0.023305421,-0.124804899,0.043046139,0.039509296
281.7542114,-0.057518419,0.009312275,-0.031047665,-2.232953443,0.03074208,0.023064685,-0.075062826,0.087910146,-0.095420063
281.7542114,-0.060812484,0.03609116,-0.026995398,-2.233201355,0.030842154,0.022874339,-0.115614131,-0.014865216,-0.054937184
281.7891846,-0.001681254,0.008240353,-0.032904953,-2.233465719,0.030819919,0.022893,-0.160986766,-0.023833964,0.083963811
281.8210754,-0.051436558,0.014691594,-0.028486768,-2.233703606,0.030826631,0.022797694,-0.105527848,0.026348347,-0.042499065
281.8210754,-0.057873152,0.02959997,-0.023028353,-2.233932667,0.030910058,0.022690661,-0.119252749,0.02099219,0.035091758
281.8210754,0.000451406,0.005906891,-0.032320656,-2.234201279,0.030922963,0.022657689,-0.166049138,0.083642289,0.043713331
281.8210754,-0.054239538,0.022180935,-0.029698508,-2.234455473,0.030997793,0.02250169,-0.099077001,0.132024348,-0.112840652
281.8551331,-0.051920455,0.028294489,-0.032439966,-2.234755583,0.031045812,0.022408544,-0.116749004,0.060901456,-0.004990935
281.8551331,-0.014914234,0.009794574,-0.038048849,-2.235088221,0.031064663,0.022340362,-0.199287444,0.044765703,0.031127572
281.8986816,-0.046513971,0.020800887,-0.033769414,-2.235403599,0.031121905,0.022177305,-0.078754626,0.011323072,0.034104884
281.8986816,-0.068219803,0.032313731,-0.042783417,-2.235761075,0.031253871,0.021794828,-0.197096765,-0.079819053,0.134847701
281.8986816,-0.054418501,0.013482786,-0.040994838,-2.236096647,0.03135805,0.021405864,-0.235760212,-0.024315458,0.092997968
281.9454956,-0.127168611,0.045214616,-0.043058787,-2.236446559,0.031586731,0.020752739,-0.147976756,0.048074588,0.100450873
281.9454956,-0.052721001,0.044411141,-0.041454498,-2.2368181,0.031867061,0.020295051,-0.142489702,0.078622296,0.193499446
281.9966736,-0.054462709,0.041464087,-0.043669183,-2.237202136,0.03222971,0.01981561,-0.181793272,0.130647853,0.051392317
281.9966736,-0.100095972,0.061219148,-0.048386972,-2.237616445,0.032660101,0.019345969,-0.119357973,0.115605593,0.050853491
281.9966736,-0.038817968,0.044081707,-0.056272592,-2.238090683,0.033030162,0.019128857,-0.162422448,0.056870803,0.162890792
281.9966736,-0.0499111,0.048464738,-0.053603042,-2.238555768,0.033471289,0.018880131,-0.190100878,0.025219228,-0.01456362
282.0557251,-0.075916067,0.065592326,-0.04895556,-2.238999019,0.033909612,0.018641194,-0.135501117,-0.0160661,0.068830669
282.1182556,-0.020375047,0.070474967,-0.051959071,-2.239457102,0.03441233,0.018519614,-0.192507446,-0.028532164,0.083143711
282.1182556,-0.014804779,0.051569719,-0.050195791,-2.23991647,0.034889364,0.018429054,-0.169913471,0.047915272,-0.086075842
282.1182556,-0.070775367,0.067710072,-0.050814446,-2.24038323,0.035377086,0.018251891,-0.084555566,0.115242802,-0.066329598
282.182312,-0.039270975,0.074270234,-0.051204864,-2.240858625,0.035907325,0.018115063,-0.10994269,0.073830806,0.022597432
282.182312,0.003651993,0.02529284,-0.050214969,-2.241334971,0.036250306,0.01811524,-0.210398719,0.086221121,-0.09228313
282.182312,-0.070730627,0.061445516,-0.05899461,-2.241848429,0.036688153,0.017956637,-0.128668264,0.050692476,-0.03121531
282.2498779,-0.043622579,0.057275273,-0.053264555,-2.242334036,0.037069525,0.017884445,-0.172384799,-0.08388602,0.035956383
282.2498779,-0.011000986,0.036784645,-0.04493738,-2.242763452,0.037392245,0.017831361,-0.15653336,-0.028030954,-0.015186906
282.2498779,-0.073378876,0.065401107,-0.045014612,-2.243167189,0.037798577,0.017562538,-0.134448558,-0.006479992,-0.047988594
282.3084106,-0.043414321,0.050040264,-0.042925894,-2.243565699,0.038134617,0.017407639,-0.107074864,0.041704789,0.001790762
282.3084106,-0.022873357,0.038229678,-0.047942225,-2.243989549,0.03850068,0.017249348,-0.158756465,0.149273381,-0.031469405
282.3640747,-0.069274679,0.057447579,-0.048401356,-2.244419277,0.03889331,0.017020203,-0.039627276,0.094249681,-0.093156695
282.3640747,-0.046321161,0.066517778,-0.052215535,-2.244885027,0.039246217,0.016864626,-0.022127613,0.05666412,0.071825385
282.3640747,0.007068296,0.050899133,-0.049314819,-2.245343927,0.039663515,0.016825391,-0.155311793,0.054061368,-0.01589793
282.425415,-0.049295645,0.060071591,-0.051303934,-2.245795218,0.040115618,0.016779016,-0.030565687,0.025603078,-0.101105034
282.4856262,-0.041750375,0.072053157,-0.049441852,-2.24623354,0.040638082,0.016783762,-0.046987951,-0.018825762,0.085214138
282.4856262,-0.016010392,0.05889181,-0.041896317,-2.246629233,0.04117812,0.016720465,-0.048260588,-0.011397064,-0.145504534
282.4856262,-0.045197837,0.063554205,-0.051295146,-2.246629233,0.04117812,0.016720465,-0.048260588,-0.011397064,-0.145504534
282.4856262,-0.079720661,0.084781736,-0.051991031,-2.247071706,0.041707352,0.016552047,0.17635338,0.025513195,-0.133850753
282.5424194,-0.079720661,0.084781736,-0.051991031,-2.247515185,0.042292034,0.016143227,-0.081677996,-0.028072951,-0.19554466
282.5424194,-0.039876841,0.041289382,-0.044640172,-2.247927764,0.042691789,0.015814271,-0.00425823,0.006296221,-0.195632696
282.6036682,-0.094409592,0.059047874,-0.059513394,-2.248417308,0.04318376,0.015256558,0.107508242,0.034500718,-0.068692029
282.6036682,-0.125778705,0.062815979,-0.053275473,-2.248866452,0.043613219,0.014555017,-0.091469109,-0.043990914,-0.0091452
282.6036682,-0.077656977,0.045866556,-0.049145974,-2.249367142,0.043988852,0.013862203,0.169720933,0.02065363,0.027072549
282.6736145,-0.092870019,0.038463503,-0.064131312,-2.249966087,0.044246849,0.013064481,0.280943125,0.01073025,-0.113659918
282.6736145,-0.103731722,0.016744891,-0.067303143,-2.250499127,0.044278574,0.012389341,-0.042483762,0.064741842,-0.214940548
282.7417603,-0.046956856,-0.023625968,-0.042908587,-2.25092437,0.043972652,0.012239671,-0.025988296,0.086549401,-0.17358911
282.7417603,-0.005735384,-0.022966303,-0.096972354,-2.251774642,0.043628926,0.012326292,0.267766804,0.155071795,0.204400361
282.7417603,-0.031847943,-0.031595744,-0.067490093,-2.252446793,0.043254014,0.012346707,0.085768737,0.105363838,0.031824231
282.8382874,-0.007008375,-0.029926473,-0.05832376,-2.252983371,0.042888247,0.012598855,-0.032639697,0.134257019,0.073035598
282.8382874,0.016807476,-0.04106994,-0.067230172,-2.253588802,0.042452163,0.012933768,0.022743568,0.150308862,-0.076776147
282.9180603,0.018134529,-0.0607238,-0.057082728,-2.25413604,0.041759747,0.013422094,0.128554225,0.098322771,-0.135377645
282.9180603,-0.017808026,-0.046255913,-0.066547066,-2.254743142,0.041059086,0.013736523,0.182538942,0.055226307,-0.039466679
282.9986572,0.055478439,-0.087274715,-0.054814778,-2.255313108,0.040166724,0.014350292,-0.151925743,0.109597474,-0.21764642
282.9986572,0.041582063,-0.065391786,-0.053191315,-2.255857785,0.039439824,0.014930913,-0.0185536,0.168894559,0.020685792
282.9986572,0.005918875,-0.051496748,-0.061912637,-2.256447723,0.038808007,0.015325407,0.220832929,0.098488711,0.088499367
283.0809631,0.005887184,-0.067741767,-0.067060262,-2.257072209,0.038119808,0.015659287,0.044275474,0.080115691,-0.113932908
283.0809631,0.0154727,-0.069356173,-0.051566254,-2.257617179,0.037400011,0.016083359,-0.071703404,0.123783633,-0.189641833
283.0809631,0.003289803,-0.055503737,-0.058345333,-2.258188193,0.0366439,0.01644887,0.109000117,0.068714365,-0.111082733
283.1568298,0.007164436,-0.083537236,-0.069489062,-2.25880675,0.035733412,0.016718476,0.098268718,0.058242068,-0.151490033
283.1568298,-0.024027038,-0.085675493,-0.068832859,-2.25942701,0.034806998,0.016839155,0.058012169,0.063276201,-0.131897569
283.2414246,-0.042246789,-0.078826375,-0.05941752,-2.260029787,0.033877601,0.016833946,-0.01364404,0.055153314,-0.069792807
283.2414246,-0.016675383,-0.075484104,-0.06753803,-2.260669219,0.032996029,0.01677427,-0.022939645,0.070398137,-0.092513144
283.2414246,-0.040311202,-0.078218639,-0.074160516,-2.261333765,0.032138034,0.016530205,0.135160506,0.025949094,-0.032636166
283.3334656,-0.082428567,-0.092131525,-0.079915605,-2.262051345,0.031177489,0.016133078,0.133924156,-0.017844465,-0.082968473
283.4265747,-0.06658382,-0.088261686,-0.065569155,-2.26270225,0.030177541,0.015881506,-0.050683297,0.041733392,-0.104982674
283.4265747,-0.023595607,-0.080617078,-0.071447819,-2.263381309,0.029233735,0.015799465,0.042530991,0.093348041,-0.013248026
283.4265747,-0.02617914,-0.08542835,-0.080473274,-2.264111025,0.028320538,0.015711556,0.059008736,0.052412257,0.054894924
283.4265747,-0.054637413,-0.079795495,-0.080249034,-2.264865641,0.027435233,0.015632038,0.046115957,0.049250372,0.045414627
283.526947,-0.024774589,-0.062495336,-0.081148118,-2.265642771,0.026666488,0.015660875,0.022425437,0.120858222,-0.00784868
283.526947,-0.005208611,-0.06075123,-0.083327383,-2.26643133,0.025997667,0.015687181,-0.021109935,0.064411774,-0.067981601
283.6351929,-0.027122431,-0.067307934,-0.078821309,-2.267207582,0.025294479,0.015704004,0.0318399,-0.00388499,-0.073151827
283.6351929,-0.073335998,-0.046180014,-0.096166216,-2.268107434,0.024684448,0.015408296,0.21067296,0.018554572,0.041080058
283.6351929,-0.021739384,-0.069641925,-0.081191525,-2.268927231,0.023953551,0.01530858,-0.083227552,0.028845979,-0.114311337
283.7501526,-0.062932894,-0.030773625,-0.093824498,-2.269809339,0.023526745,0.014894293,0.129113525,0.008518513,0.087197363
283.7501526,-0.096481532,-0.044904359,-0.100970559,-2.270723313,0.02309823,0.014206538,-0.075978458,-0.042905487,-0.183259904
283.8709717,-0.098061852,-0.041296307,-0.081789136,-2.271533229,0.022670916,0.013550539,-0.075550988,-0.043562222,-0.18324101
283.8709717,-0.156038076,0.016584303,-0.09170036,-2.272382967,0.022580262,0.012416916,0.115701526,-0.014667835,-0.136166155
283.8709717,-0.077933684,-0.037744716,-0.081528418,-2.273183566,0.022256459,0.011625393,0.193509534,0.045056086,0.293858588
283.9867249,-0.21117802,0.019704463,-0.099185973,-2.274094445,0.022284284,0.0100675,-0.071472302,0.019463792,-0.110650897
283.9867249,-0.138835654,-0.001025051,-0.095770732,-2.274985233,0.022191837,0.008804237,0.043167695,0.039240912,-0.092677295
284.1096802,-0.118872322,-0.011809255,-0.087132506,-2.275820976,0.022007396,0.007789293,0.217790604,0.108522005,0.112611711
284.1096802,-0.155681744,0.008731173,-0.094557665,-2.276700816,0.021940778,0.006654064,0.139747366,0.069162153,0.055721343
284.2258606,-0.101801194,-0.011950935,-0.085301049,-2.277549971,0.021830084,0.005779003,0.086925313,0.110781766,0.142612755
284.2258606,-0.112282068,0.012464659,-0.093752325,-2.278430971,0.021852083,0.005028177,0.112431154,0.15086256,0.093696654
284.2258606,-0.085814774,0.023510652,-0.097947605,-2.279330403,0.021956194,0.004501774,0.225043565,0.164739817,0.064323723
284.3468018,-0.046719834,0.00183838,-0.090763189,-2.280192466,0.02198441,0.004180385,0.120370515,0.071080022,0.038262486
284.3468018,-0.079012796,0.018682342,-0.095267132,-2.281088074,0.02207425,0.003744031,0.120753571,0.081370071,-0.117911458
284.3468018,-0.072947174,0.023681628,-0.100577742,-2.282013856,0.022190466,0.003362645,0.217606813,0.111139588,-0.151695669
284.4747314,-0.069176942,0.004898885,-0.095475659,-2.282919111,0.022237626,0.002940233,0.226348639,0.088637196,-0.054832578
284.4747314,-0.098841891,0.019570239,-0.101954862,-2.283878585,0.022359363,0.00224933,0.170211732,0.08976125,-0.086144507
284.61026,-0.100664824,0.028582375,-0.103735983,-2.284864056,0.02251159,0.001481392,0.117538579,0.048709173,-0.098735034
284.61026,-0.115710087,0.03144341,-0.105454788,-2.285861133,0.022685569,0.000546199,0.153314129,0.065442517,-0.066068947
284.61026,-0.125904128,0.034776356,-0.10368032,-2.286856911,0.022894412,-0.000545186,0.246809304,0.061008126,-0.054187119
284.7524414,-0.111543842,0.015512381,-0.109894007,-2.287902603,0.023074894,-0.001587292,0.190308481,0.072873682,0.056021869
284.9055481,-0.184535488,0.035206724,-0.120706707,-2.288984468,0.023353263,-0.002878314,0.034527596,0.122987948,-0.072222352
284.9055481,-0.142847165,0.028109932,-0.115294635,-2.290077989,0.02361046,-0.003898971,0.258849084,0.172960922,0.057544172
284.9055481,-0.099271722,0.036571059,-0.124691866,-2.291325728,0.023895139,-0.004727695,0.304172754,0.142849579,0.077538073
284.9055481,-0.074130952,0.03027375,-0.143356636,-2.292677062,0.024116229,-0.005390017,0.204632089,0.21291095,0.09190321
285.0888672,-0.090328567,0.028391428,-0.127845585,-2.293880388,0.024343785,-0.005978246,0.046826895,0.193538442,-0.00148946
285.0888672,-0.060932059,0.030402115,-0.125467107,-2.295107878,0.02458058,-0.006300387,0.26447019,0.100503519,0.055616379
285.2720337,-0.06025029,0.021672538,-0.14754419,-2.29649936,0.024761252,-0.006661831,0.292716533,0.067609906,0.114142299
285.2720337,-0.091481179,0.033602435,-0.128516957,-2.297750832,0.024951631,-0.007229907,0.162551731,0.078317389,-0.035921335
285.2720337,-0.039861929,0.000284692,-0.122817531,-2.298933871,0.02496399,-0.007541082,0.145998895,0.101534903,-0.002583444
285.2720337,-0.074106984,0.016858876,-0.117800936,-2.300092535,0.025094706,-0.00800484,0.205194324,0.031078529,-0.029644191
285.4433594,-0.108879343,0.019588616,-0.154420197,-2.301444913,0.025204551,-0.008771867,0.318045378,-8.49E-05,0.017786205
285.6218872,-0.113494068,-0.001246093,-0.123248696,-2.302637545,0.025195772,-0.009755118,0.224441722,0.053984389,-0.09898299
285.6218872,-0.115845107,0.009755425,-0.110803746,-2.303754169,0.025202812,-0.010768446,0.174508184,0.065787263,0.014486074
285.7877502,-0.157356605,0.020344952,-0.127155021,-2.304943481,0.025343384,-0.012046003,0.231496766,0.020608697,0.013323545
285.7877502,-0.150288835,-0.005145493,-0.129122302,-2.306169586,0.025350411,-0.013344217,0.28662014,0.036902383,-0.020277739
285.7877502,-0.173808277,-0.005562811,-0.123973876,-2.307378303,0.025285718,-0.014840582,0.231341794,0.025058888,0.022793591
285.9588928,-0.187038064,-0.002043443,-0.126296148,-2.308558209,0.025193942,-0.016347446,0.152546287,0.095449775,-0.109307647
285.9588928,-0.153898492,-0.001433846,-0.128973693,-2.309766136,0.025130723,-0.017573009,0.268210679,0.097549312,0.080995977
285.9588928,-0.128347054,0.00748295,-0.127234116,-2.310994877,0.025200513,-0.0186894,0.210005343,0.089534774,0.048579574
286.1329651,-0.128264502,0.002346511,-0.133165509,-2.31224986,0.025156855,-0.019658658,0.287274241,0.125704408,0.014977455
286.1329651,-0.123869747,0.016662067,-0.130634978,-2.313494528,0.025186721,-0.020548629,0.220487595,0.123898,0.093938291
286.3095093,-0.038599592,-0.000395746,-0.116535932,-2.314718592,0.025183898,-0.020953524,0.170640171,0.171298489,-0.002154648
286.3095093,-0.084174529,0.020530842,-0.158602163,-2.316187501,0.025264505,-0.021403398,0.285443187,0.123042382,0.089310229
286.3095093,-0.061100639,0.004038417,-0.134011865,-2.317487519,0.025305147,-0.021750058,0.249987051,0.090590887,0.030326486
286.5018311,-0.058748536,-0.008319182,-0.120490991,-2.318641969,0.025257731,-0.022050039,0.14192614,0.103397921,-0.173429489
286.5018311,-0.089613236,0.019195799,-0.126870602,-2.319795213,0.025302483,-0.022437856,0.30058825,0.054593593,-0.039741755
286.5018311,-0.026268622,0.001352087,-0.116588399,-2.321027424,0.025279039,-0.022711516,0.280470282,0.065168664,0.07708925
286.6694946,-0.089972764,0.02810061,-0.134343162,-2.322340641,0.025444593,-0.023353984,0.27813825,0.097637162,-0.085237503
286.6694946,-0.081436001,0.020341225,-0.107728325,-2.323385263,0.025579626,-0.023902496,0.165729284,0.086742677,-0.112857103
286.6694946,-0.062725432,0.012178902,-0.106496349,-2.324494929,0.025680294,-0.024403099,0.257379979,0.060515299,-0.049669862
286.8319702,-0.124139793,0.018950788,-0.186881468,-2.32611506,0.025780831,-0.025199465,0.377687007,0.015696602,-0.009653151
287.0220337,-0.09078636,0.006540457,-0.106602609,-2.327221337,0.025793864,-0.025827474,0.187946588,0.138511628,-0.052912951
287.0220337,-0.084301032,0.020339893,-0.105804995,-2.328213958,0.025849391,-0.026386584,0.221689627,0.137311175,0.015293062
287.0220337,-0.061152834,0.025172997,-0.119467542,-2.329351176,0.02594773,-0.026850799,0.265048593,0.098928466,0.085789025
287.0220337,-0.060398895,0.013207149,-0.114479177,-2.330503418,0.025982966,-0.027301722,0.266066521,0.097058095,0.0335145
287.1759949,-0.086736761,0.017779795,-0.164068297,-2.331944115,0.026043045,-0.027842357,0.323746055,0.068211958,0.089711428
287.1759949,-0.068385981,0.000113717,-0.110511065,-2.331944115,0.026043045,-0.027842357,0.323746055,0.068211958,0.089711428
287.3543701,-0.069278404,0.012720322,-0.114918865,-2.334101132,0.026063528,-0.028600629,0.275004804,0.107141189,-0.020738363
287.3543701,-0.072630793,0.011799135,-0.102595881,-2.334101132,0.026063528,-0.028600629,0.275004804,0.107141189,-0.020738363
287.4979553,-0.072630793,0.011799135,-0.102595881,-2.335077858,0.026034853,-0.029043999,0.257303119,-0.020789713,-0.052275062
287.4979553,-0.091745101,0.014604243,-0.110025302,-2.336083129,0.025957946,-0.029718919,0.303599447,-0.019481519,-0.04136765
287.4979553,-0.094548076,0.001386708,-0.094108388,-2.337000508,0.025844551,-0.030555034,0.238711119,0.005530123,-0.027443409
287.6340637,-0.127676472,0.007542605,-0.105455317,-2.337970032,0.025819746,-0.031521151,0.266614527,0.075074166,0.011833906
287.6340637,-0.11566668,0.002450374,-0.108361363,-2.339007358,0.025792729,-0.032399583,0.255915344,0.075309008,0.052242279
287.6340637,-0.139375731,0.008478173,-0.135445446,-2.340194484,0.025775815,-0.033454575,0.3290838,0.004245974,0.008323669
287.7904053,-0.102122374,-0.017522801,-0.103288308,-2.341220112,0.025564672,-0.034315466,0.29243052,0.035061777,-0.07641691
287.7904053,-0.13659966,0.005747102,-0.12076503,-2.342312325,0.025423658,-0.035327066,0.303497761,0.081077158,0.004300952
287.9433289,-0.071047015,-0.019952137,-0.108914502,-2.343385015,0.025128688,-0.035951788,0.22675176,0.101265058,-0.045533776
287.9433289,-0.121225759,-0.006482667,-0.164270967,-2.344829674,0.024930019,-0.03680097,0.305549264,0.073239505,0.128970325
288.1224365,-0.082975313,-0.019410983,-0.116566293,-2.345998123,0.024664907,-0.037386018,0.220045328,0.12070407,0.014422715
288.1224365,-0.082910329,-0.008694421,-0.112146243,-2.34706935,0.024494732,-0.037941629,0.197495714,0.065948971,0.086625755
288.1224365,-0.059415124,-0.009603092,-0.109170698,-2.348133186,0.024332318,-0.038325538,0.254558563,0.100782171,0.05618906
288.2832642,-0.076848976,-0.00714606,-0.128901526,-2.349332622,0.02417762,-0.038784232,0.275038421,0.02907997,0.128761172
288.2832642,-0.066741213,-0.008372446,-0.108195975,-2.350420524,0.023996777,-0.03918029,0.280667037,0.074276999,0.014354944
288.2832642,-0.042798329,-0.000789894,-0.119245969,-2.351558914,0.023927478,-0.039473514,0.246480659,0.129556164,0.046205461
288.4429321,-0.059965067,-0.002201103,-0.104952782,-2.352595625,0.023839326,-0.039795384,0.206789464,0.114402607,-0.040292025
288.4429321,-0.027304325,-0.014799186,-0.123239644,-2.353853022,0.023719087,-0.03988775,0.225510269,0.063300081,0.060415149
288.6499634,-0.093827695,0.004761199,-0.213368997,-2.355755142,0.023677836,-0.040449433,0.330685109,0.042337161,0.161208391
288.6499634,-0.040776458,-0.0048877,-0.119448632,-2.356985439,0.023585316,-0.040681695,0.270414114,0.129369825,-0.079063773
288.6499634,-0.067078903,0.014618358,-0.092208758,-2.357892935,0.023648793,-0.041067497,0.239879191,0.084046751,0.030538082
288.7982178,-0.021412082,-0.005399026,-0.089335203,-2.358805543,0.023585839,-0.041089159,0.215741739,0.088556938,-0.087060809
288.9791565,-0.012533635,0.00157233,-0.138649762,-2.360138218,0.023569887,-0.041051848,0.283888131,0.093263455,0.086219907
288.9791565,-0.063119315,0.010920292,-0.144926295,-2.361505187,0.023600953,-0.041297267,0.293928117,0.084045783,0.069805861
288.9791565,0.011298727,0.004210724,-0.113082081,-2.362606935,0.02360469,-0.04110389,0.268045306,0.17527318,-0.040675104
288.9791565,-0.042170089,0.020793429,-0.103412673,-2.363610027,0.023743009,-0.041128575,0.260582775,0.103135452,0.094055712
289.1246338,0.008621718,0.0079767,-0.092565887,-2.364526655,0.023827306,-0.040872435,0.240554973,0.093534499,-0.023901522
289.1246338,-0.008538627,0.018652247,-0.102727443,-2.365511068,0.023941256,-0.04081312,0.284218431,0.098568201,0.059105992
289.2532043,-0.035197668,0.011298195,-0.078637823,-2.366287095,0.024024167,-0.040837916,0.268205345,0.087007739,-0.024682999
289.2532043,-0.009043296,0.0043303,-0.07928896,-2.367036488,0.024014832,-0.040673945,0.263545334,0.067335352,-0.071688414
289.2532043,-0.016151274,0.012601546,-0.087436371,-2.367858208,0.024089376,-0.040583153,0.284024268,0.081906766,0.044936419
289.3647766,-0.025792714,0.01345642,-0.084558561,-2.368658563,0.024159678,-0.040561557,0.278903276,0.089084744,0.00605619
289.3647766,0.001618403,0.005821138,-0.076780267,-2.369419684,0.02415338,-0.04039036,0.283044547,0.058280654,-0.047556102
289.4780884,-0.036569994,0.016980315,-0.092970423,-2.370265482,0.024209835,-0.040426608,0.287138522,0.056520153,0.064364254
289.4780884,0.001619202,-0.000913464,-0.081408836,-2.371046559,0.024164673,-0.040218343,0.25346154,0.099773526,-0.055331409
289.4780884,-0.017983794,0.013490775,-0.080673277,-2.371836958,0.024278781,-0.040087626,0.275197893,0.08813978,0.044066787
289.5946655,-0.00874369,0.016374446,-0.109969646,-2.372884887,0.024296844,-0.039950778,0.275179684,0.088276684,0.044071853
289.5946655,-0.016829314,0.005669071,-0.096177399,-2.373858558,0.024345045,-0.039881629,0.199157909,0.028180465,-0.035470605
289.7312927,-0.01246386,0.012660667,-0.088513352,-2.374702272,0.024357159,-0.039779987,0.213900939,0.046012864,0.020792305
289.7312927,-0.01775929,0.01755183,-0.092267081,-2.375569373,0.024426688,-0.039717488,0.269937903,0.030145198,0.015498281
289.8629761,-0.01507003,0.007062171,-0.09537632,-2.376492749,0.024448983,-0.039602683,0.312090784,0.016756017,0.12606746
289.8629761,-0.041594848,0.016683105,-0.11763262,-2.377563429,0.024538942,-0.039711628,0.30016008,0.001998592,0.032768726
289.8629761,-0.033760361,0.01828553,-0.092850842,-2.378470744,0.0246195,-0.039797081,0.175842538,0.044652961,-0.060361087
289.9954224,0.010346647,0.006654707,-0.083725788,-2.379354252,0.024654716,-0.039544391,0.289057791,0.101927847,0.132793844
289.9954224,-0.029251894,0.039654203,-0.148358047,-2.380630658,0.024916201,-0.039525814,0.259270519,0.105242342,0.003546178
289.9954224,-0.004532168,0.013755493,-0.091143757,-2.381565187,0.025022312,-0.03933431,0.23067604,0.065440625,0.015773356
290.1517639,0.00102585,0.025248632,-0.121967718,-2.382696899,0.025200362,-0.039058215,0.316175789,0.01096832,0.099291086
290.1517639,-0.014280935,0.035157453,-0.108529672,-2.383742675,0.025474439,-0.038927361,0.251463681,0.079092398,-0.034911811
290.2945557,0.020556141,0.022408903,-0.080434918,-2.384573819,0.02574094,-0.038564773,0.293768823,0.045077104,0.080833316
290.2945557,-0.03178243,0.046393331,-0.109124623,-2.385554449,0.026153308,-0.038476737,0.290304542,-0.001404643,-0.01034528
290.2945557,-0.019409651,0.036350284,-0.085529014,-2.386367797,0.02641795,-0.038410792,0.209641233,-0.026897147,-0.075031698
290.2945557,-0.024871795,0.02239532,-0.075183436,-2.387108935,0.0266205,-0.038427936,0.304561973,-0.023633663,0.022343874
290.4170532,-0.048037302,0.025287513,-0.093499325,-2.387965994,0.026818118,-0.038629767,0.317853302,0.045103624,0.013175547
290.530304,-0.045728073,0.02039795,-0.0783723,-2.388732988,0.026982344,-0.038862504,0.283234954,0.041452806,0.013787687
290.530304,-0.037205424,0.013459616,-0.081799522,-2.3894997,0.027145209,-0.038999759,0.289847136,0.057001524,0.05776906
290.530304,-0.066410713,0.022972694,-0.086301066,-2.390299164,0.027312879,-0.039325988,0.282141924,0.032032195,-0.001620293
290.6403198,-0.059963733,0.019838952,-0.077640198,-2.391017732,0.027419978,-0.039659319,0.280326217,0.023184314,-0.115054965
290.6403198,-0.0209921,-0.001767806,-0.072706692,-2.391747222,0.027389364,-0.039720758,0.317481518,0.041830126,0.060724676
290.7502747,-0.085505046,0.022352444,-0.098068774,-2.392616108,0.02746527,-0.040133728,0.272590995,0.006672721,-0.058800697
290.7502747,-0.030889472,-0.000294013,-0.068249628,-2.393279846,0.02741974,-0.040250512,0.246803522,0.001520477,-0.083614945
290.7502747,-0.040055539,0.005598763,-0.069539666,-2.393951345,0.027421712,-0.040381081,0.306631416,0.032121059,0.07174474
290.8448792,-0.056631587,0.018136393,-0.075154409,-2.39464797,0.027510045,-0.04065446,0.299448043,0.031191435,-0.003509879
290.8448792,-0.04059403,0.002322809,-0.070153259,-2.395297034,0.02749764,-0.040780018,0.258200824,0.052992698,-0.051457763
290.9364014,-0.036765471,0.015104384,-0.065934278,-2.395930629,0.027528586,-0.040798192,0.260946989,0.083980374,-0.002707541
290.9364014,-0.012314457,0.011479822,-0.082764924,-2.396719731,0.027523777,-0.040713232,0.334148109,0.08495038,0.00063771
290.9364014,-0.000843423,0.000366717,-0.071741298,-2.397454315,0.027461636,-0.040502553,0.291500658,0.074907228,-0.019402027
290.9364014,-0.01030377,0.011205783,-0.070814252,-2.398114217,0.027472452,-0.0402866,0.24450779,0.061253022,0.045303643
291.0420532,-0.005896239,0.002400041,-0.069258168,-2.398758038,0.027435069,-0.040031377,0.240165621,0.043274097,-0.067966342
291.1329346,6.63E-05,-0.000660997,-0.066363841,-2.399398606,0.027359537,-0.03969267,0.301825255,0.077533245,0.014309406
291.1329346,0.005631254,0.011853198,-0.081625886,-2.400131292,0.027343796,-0.03941598,0.317450434,0.056417216,0.004295766
291.1329346,0.002357963,0.00039255,-0.065803513,-2.400772739,0.027188492,-0.039135073,0.224664167,0.044521727,-0.131110728
291.2267456,0.008892828,-0.00101786,-0.063062325,-2.401390474,0.027025051,-0.038757884,0.234669149,0.095634565,0.01249361
291.2267456,0.01438533,0.000159257,-0.067761205,-2.402079833,0.026908764,-0.03836917,0.308973253,0.108474627,-0.013641834
291.3256226,0.002231463,-0.00230683,-0.079165123,-2.402830918,0.026748289,-0.038053005,0.322957903,0.057597715,-0.027953446
291.3256226,0.015376027,-0.010711234,-0.063941166,-2.403446871,0.026564137,-0.037685841,0.222906709,0.073406942,-0.01156193
291.3256226,-0.010948255,-0.006507434,-0.067476779,-2.404059911,0.026399606,-0.037399197,0.286105037,0.061807144,-0.042384803
291.4120483,0.008763664,-0.003375024,-0.063263923,-2.404653817,0.026219799,-0.037020707,0.275466025,0.089880534,0.019966185
291.4120483,0.019071961,-0.003949202,-0.062542208,-2.405247592,0.026060483,-0.036643303,0.2179773,0.090792187,0.032710075
291.4952087,-0.008813731,0.006018212,-0.060544569,-2.405837557,0.02594851,-0.036395789,0.233363122,0.00951213,-0.023018301
291.4952087,0.025020132,-0.023165507,-0.065269016,-2.406457534,0.025701626,-0.035979456,0.303647518,0.001505841,0.032819808
291.4952087,-0.0226888,-0.013393037,-0.072893649,-2.407116463,0.025533791,-0.03582745,0.27427423,0.074717015,0.115700006
291.5836487,-0.024602016,-0.005074387,-0.065712966,-2.407730421,0.025432683,-0.035710711,0.263831437,0.061116159,0.034789443
291.5836487,0.002669819,-0.005582252,-0.059194081,-2.40830894,0.025268551,-0.035464465,0.211093158,-0.00894995,0.019238412
291.6715393,0.008129565,-0.002963832,-0.067096747,-2.408984316,0.025138138,-0.035239212,0.278133184,0.063068032,0.144539595
291.6715393,-0.029194636,-0.002755306,-0.078575239,-2.40971386,0.025049875,-0.035219543,0.250511497,0.078697443,0.048518896
291.6715393,-0.002752643,-0.017825868,-0.061493985,-2.410311195,0.024874622,-0.034951793,0.16671744,0.028168846,0.031030834
291.7702332,-0.005524994,-0.004787032,-0.108940333,-2.411264989,0.024819289,-0.034701284,0.302468985,0.043418899,0.200199902
291.7702332,-0.018392589,-0.003967045,-0.08721187,-2.412121508,0.0247886,-0.034527722,0.298578024,0.014585603,0.060054719
291.7702332,0.025776736,0.002224006,-0.066654392,-2.412766361,0.024777529,-0.034171582,0.232640296,0.041751649,0.115548193
291.8869629,-0.00428982,0.012687299,-0.073191918,-2.413425063,0.02485337,-0.03396381,0.276479036,0.071531087,0.048323154
291.8869629,0.01865571,-0.00927579,-0.063141152,-2.413425063,0.02485337,-0.03396381,0.276479036,0.071531087,0.048323154
291.8869629,0.012624982,0.005390504,-0.078339547,-2.414719059,0.02479609,-0.033100432,0.287338853,0.040610977,0.163069129
291.9759827,0.007457117,-0.001446096,-0.065882877,-2.414719059,0.02479609,-0.033100432,0.287338853,0.040610977,0.163069129
291.9759827,0.013928599,-0.003032009,-0.064437047,-2.415349972,0.024777105,-0.032794698,0.197727472,0.05863237,-0.023291171
292.0657959,0.013928599,-0.003032009,-0.064437047,-2.415958016,0.0246876,-0.032347826,0.253206044,0.023740187,0.069590569
292.1516113,0.006151636,0.009096026,-0.065778747,-2.416568651,0.024737818,-0.03202415,0.246304363,0.010209106,0.068913102
292.1516113,0.002886867,0.002211755,-0.063921191,-2.417175196,0.024736188,-0.031746537,0.307524025,0.03920396,0.004896164
292.1516113,-0.006399842,0.002069542,-0.062796809,-2.417773313,0.024732593,-0.031541388,0.234895617,0.02735481,-0.023722768
292.1516113,-0.02014415,0.010803645,-0.066229619,-2.418378133,0.024816752,-0.031491947,0.236566156,-0.005539443,-0.017833412
292.2362366,-0.032955818,-0.002384062,-0.066374496,-2.418979602,0.024794233,-0.031521412,0.287720919,-0.022536699,-0.084468901
292.2362366,-0.032781914,0.00372017,-0.062073492,-2.419558426,0.02484377,-0.031612812,0.223187774,0.002136841,0.031173348
292.3231812,-0.061924353,0.01901417,-0.067379571,-2.42018012,0.024961673,-0.031974223,0.251161546,0.031667139,0.023346424
292.3231812,-0.052433647,0.00665737,-0.06591963,-2.420808226,0.025041921,-0.032243319,0.220762253,0.035243064,-0.06052655
292.3231812,-0.063349411,0.014447116,-0.070419304,-2.42146242,0.025185725,-0.032543102,0.248389646,0.01533553,0.035849929
292.4176636,-0.070249125,0.024309333,-0.073383935,-2.422144425,0.025398881,-0.032943498,0.293922573,0.024532635,0.00838083
292.4176636,-0.048896704,0.018858111,-0.07238365,-2.422826421,0.025535378,-0.033200463,0.194497317,0.052366935,-0.034783006
292.4176636,-0.056355949,0.027686754,-0.076252691,-2.423546583,0.025753095,-0.033467842,0.26521787,0.049215458,0.071220517
292.6334839,-0.067883708,0.035670113,-0.085234202,-2.424335384,0.02602667,-0.033796946,0.269674718,0.069729641,0.011845708
292.6334839,-0.025114408,0.017721739,-0.080478862,-2.425124599,0.026189099,-0.033883046,0.183971539,0.049974911,-0.048143744
292.6334839,-0.064679392,0.045561094,-0.091588773,-2.425980797,0.026553103,-0.034203335,0.272642732,0.079088598,0.084816039
292.6334839,-0.038163897,0.027428694,-0.090115778,-2.42685051,0.026801896,-0.0343657,0.203073353,0.04912572,-0.09463948
292.6334839,-0.055629175,0.035559058,-0.095980056,-2.427755817,0.027103103,-0.034621919,0.246397167,0.045787048,0.008935452
292.7588501,-0.061679877,0.036517266,-0.099479988,-2.428678388,0.027411542,-0.034958022,0.272776604,0.04615264,-0.051875651
292.8932495,-0.064692713,0.028838839,-0.099290632,-2.429621908,0.027624049,-0.035304606,0.243587926,0.054442316,-0.092039585
292.8932495,-0.074725635,0.036287967,-0.095937982,-2.4305671,0.027883111,-0.035780585,0.171826601,0.062861949,-0.045493901
292.8932495,-0.072378062,0.043061983,-0.106435098,-2.431569689,0.028166601,-0.03636854,0.20666939,0.078966767,-0.088171363
292.8932495,-0.07504122,0.013796239,-0.107460678,-2.432580267,0.028284733,-0.036910896,0.157647386,0.05549017,-0.13694644
293.0378723,-0.123635918,0.031752869,-0.111588046,-2.433615886,0.028459503,-0.03764356,0.115237057,0.099404342,-0.018234789
293.0378723,-0.097079948,0.015252722,-0.114806741,-2.434693511,0.02851705,-0.03834444,0.061545618,0.104791373,-0.128431559
293.190155,-0.080945186,0.01327213,-0.110893495,-2.435763133,0.028497771,-0.038945186,0.082912609,0.10695219,-0.141714096
293.190155,-0.095663406,0.015954997,-0.112598181,-2.436851118,0.028467846,-0.039647315,0.111080535,0.095705926,-0.041643202
293.190155,-0.079338498,0.003407515,-0.123953901,-2.438015975,0.02837029,-0.040255148,0.099704176,0.142293274,-0.101692796
293.352417,-0.074253455,-0.00525202,-0.123985596,-2.439194815,0.028230349,-0.040682765,0.077032715,0.140537977,-0.055273652
293.352417,-0.087818533,0.005997705,-0.127744913,-2.440407343,0.028128843,-0.0411403,0.097718865,0.131611645,0.016030014
293.5263367,-0.046780288,-0.008817194,-0.128127337,-2.441644378,0.027883266,-0.041389195,0.094424687,0.147948951,-0.086420894
293.5263367,-0.026849991,-0.008253935,-0.129463449,-2.44290276,0.027632985,-0.041488773,0.032312408,0.183982179,-0.039924502
293.7105713,-0.033580597,-0.005628857,-0.135844111,-2.444214339,0.027404515,-0.041530033,0.077584878,0.188182846,-0.001330495
293.7105713,-0.012554673,-0.023806529,-0.130258933,-2.445526681,0.027050385,-0.041372219,0.081951886,0.157441676,-0.059770703
293.7105713,-0.006177735,-0.013828997,-0.138836175,-2.446895847,0.026756869,-0.0412439,0.093323141,0.182563931,0.01470542
293.9069824,-0.003955593,-0.024561802,-0.145160392,-2.448296293,0.02639433,-0.041035008,0.104427643,0.19455269,-0.047257543
293.9069824,-0.013957627,-0.01821682,-0.148069888,-2.449712093,0.026029259,-0.040777672,0.057261333,0.143204898,-0.03042227
293.9069824,0.005141233,-0.024579113,-0.146153212,-2.451145151,0.025642487,-0.040520244,0.138702542,0.123458177,-0.029303193
294.1121826,-0.014784539,-0.025249165,-0.151491791,-2.452629795,0.025226698,-0.040418903,0.071811751,0.141076654,-0.098181903
294.1121826,0.001467402,-0.040860616,-0.155265749,-2.454147141,0.024711744,-0.040217272,0.068191409,0.153851599,-0.00444144
294.3308411,-0.034236532,-0.019051455,-0.16121392,-2.455704328,0.024310071,-0.040210212,0.114338972,0.136478901,-0.050131381
294.3308411,-0.031599205,-0.036970533,-0.162429124,-2.457303624,0.023794772,-0.040246664,0.049287356,0.149214044,-0.036311269
294.3308411,-0.02778689,-0.033413883,-0.166142106,-2.458948849,0.023300315,-0.040318125,0.076240681,0.120410249,0.022840559
294.5644531,-0.039538886,-0.027512318,-0.17025429,-2.460629574,0.022837123,-0.040486069,0.107481062,0.146273732,-0.005201161
294.8074036,-0.028712071,-0.046602655,-0.174479932,-2.462332928,0.022255057,-0.040561146,0.010468069,0.115452148,0.026425123
294.8074036,-0.029581593,-0.042052113,-0.174672201,-2.464029992,0.021713555,-0.040532706,0.134743154,0.122698009,0.027109563
294.8074036,-0.007366037,-0.049842391,-0.17518194,-2.465752696,0.021093083,-0.040333242,0.19204995,0.106952116,0.075989544
294.8074036,0.003189934,-0.04999632,-0.17663762,-2.467509576,0.020417979,-0.040073663,-0.012719367,0.18556568,0.022562504
295.0587769,0.046420496,-0.048879657,-0.184453204,-2.469357798,0.0197564,-0.039532326,0.015590858,0.314006418,0.06082058
295.0587769,0.036718067,-0.038865373,-0.19896397,-2.471253449,0.019186834,-0.038920221,0.040330015,0.186780646,0.004093051
295.3235779,0.072865151,-0.077240728,-0.181299224,-2.473047028,0.0184278,-0.037927257,0.126232609,0.086791426,0.180003047
295.3235779,0.044409808,-0.044301417,-0.20672442,-2.475005532,0.017847355,-0.037243259,0.138409466,0.102963448,0.20318687
295.3235779,0.042471293,-0.042286202,-0.199728563,-2.476953427,0.017267872,-0.036658294,-0.131244361,0.122942641,-0.104032278
295.6019592,0.021225128,-0.047845285,-0.188571244,-2.478854276,0.016651549,-0.036029637,-0.005506106,0.243383661,-0.056849301
295.6019592,0.063653812,-0.027671043,-0.200204462,-2.480864563,0.016155796,-0.035308234,0.286157668,0.093135014,0.059273481
295.8884888,0.061924353,-0.060415406,-0.200799689,-2.482913166,0.015422028,-0.034567552,0.256205946,-0.070125312,0.068756163
295.8884888,0.024267523,-0.041519213,-0.221039176,-2.484969406,0.014808909,-0.033946199,5.94E-05,0.208328456,0.10180676
295.8884888,0.055420913,-0.062838085,-0.194370285,-2.48691137,0.014185306,-0.033087093,-0.027301665,0.330114037,0.011680424
296.1761475,0.005193164,0.003592871,-0.201385304,-2.488882182,0.013806596,-0.032416942,-0.153921947,0.289036602,-0.248576701
296.1761475,0.205703631,-0.092920616,-0.192616582,-2.491084784,0.012837927,-0.030643691,0.238495573,0.217752054,0.193966508
296.5437317,-0.001956358,0.008002266,-0.389089435,-2.494357988,0.012440245,-0.030081854,0.189729482,-0.064064831,0.007694066
296.5437317,0.115195028,-0.070938885,-0.203446865,-2.496389286,0.011687967,-0.028913053,-0.120614305,-0.010816867,-0.202772617
296.5437317,0.029172266,-0.043889694,-0.215328023,-2.498484991,0.01112539,-0.028179018,0.327473462,0.094547272,0.122938395
296.8408203,-0.004854676,-0.041777808,-0.20586741,-2.500541578,0.01057851,-0.027923204,0.077776559,-0.14393571,-0.274936676
296.8408203,-0.018287394,-0.067905016,-0.202154696,-2.50254493,0.009797535,-0.027886181,0.09433572,-0.02013462,-0.126444399
296.8408203,-0.045061219,-0.047023434,-0.198996454,-2.504533119,0.00913012,-0.028097786,-0.013623607,0.024697546,-0.171716809
297.1262207,-0.040295757,-0.073060095,-0.196990296,-2.506515608,0.008317133,-0.028260761,0.036857415,0.051466197,0.017509937
297.1262207,-0.109356582,-0.037117541,-0.209086105,-2.50856107,0.007686064,-0.028882857,0.134077251,0.002305388,0.073039174
297.4157715,-0.031414114,-0.061114486,-0.216204733,-2.51064494,0.006973608,-0.029148438,0.035653967,0.12900798,0.138664722
297.4157715,-0.150369525,-0.013442572,-0.210812375,-2.512720573,0.006528596,-0.029997398,0.01752954,-0.0045626,-0.062803924
297.7146606,0.007132744,-0.061775748,-0.213043571,-2.514815327,0.005810521,-0.029973826,0.078001566,0.093025684,-0.052300751
297.7146606,-0.052362807,-0.047576841,-0.214680344,-2.516938942,0.005146927,-0.030105844,0.23288627,0.100233048,0.005758643
297.7146606,-0.041328531,-0.06187322,-0.222887143,-2.519096517,0.004329538,-0.03010062,0.110825248,0.036700685,-0.117482603
298.020813,0.026456641,-0.070305586,-0.219010115,-2.5212413,0.003469174,-0.029733908,0.03615522,0.102833055,0.082666039
298.3363647,-0.034105241,-0.048480716,-0.222802445,-2.523459017,0.002813168,-0.029745711,0.174384981,0.063667193,0.037379682
298.3363647,-0.029913956,-0.082659461,-0.219764322,-2.525676817,0.001925067,-0.029670487,0.036495075,-0.042733356,-0.206298828
298.3363647,-0.026439862,-0.065547854,-0.221240774,-2.527877482,0.001051778,-0.029577228,0.120590478,0.07677526,-0.033015966
298.3363647,-0.034453582,-0.058806326,-0.222822964,-2.530087261,0.000244265,-0.029744315,0.059020694,-0.011007924,-0.089798391
298.6533203,-0.066299662,-0.081002444,-0.230224952,-2.532312743,-0.000696559,-0.030102988,-0.082676917,-0.025832206,-0.191310763
298.6533203,-0.051614992,-0.091306746,-0.227990553,-2.534523616,-0.001641639,-0.030341388,0.060877521,0.09769325,0.09221971
298.9699707,-0.134109333,-0.047666054,-0.227167368,-2.53674792,-0.002324047,-0.031203902,0.016958944,-0.06015233,0.146085858
298.9699707,-0.112638667,-0.047515854,-0.225575075,-2.538965987,-0.003013305,-0.032206354,-0.034032911,0.00624257,0.090281308
298.9699707,-0.136207104,-0.034384605,-0.229875281,-2.54121232,-0.003563259,-0.033360687,-0.000188028,0.064566202,0.090241611
299.2904663,-0.17178081,-0.032875393,-0.236513466,-2.543506353,-0.004057005,-0.034683089,0.049072947,0.063899077,0.04675293
299.2904663,-0.191724956,-0.02935496,-0.227387875,-2.54576956,-0.004518177,-0.036205394,-0.022929832,0.017621852,0.065404177
299.2904663,-0.180240616,-0.022169484,-0.229956239,-2.548065229,-0.004897534,-0.037773316,-0.045377702,0.014191512,0.116858006
299.6174927,-0.204079628,-0.009841179,-0.241713285,-2.550445334,-0.005165654,-0.039506369,-0.007039115,0.061636709,0.141508877
299.6174927,-0.183466762,-0.01370223,-0.24046959,-2.552791843,-0.005417261,-0.041060059,-0.114591077,0.070885599,0.111736059
299.6174927,-0.215880901,0.016393887,-0.247509927,-2.555185109,-0.005437579,-0.042810393,0.000739513,0.068386987,0.2758165
299.9553528,-0.218616232,0.037358291,-0.248942181,-2.557614994,-0.005300386,-0.044614117,-0.103585154,0.084069364,0.126049638
299.9553528,-0.153042018,0.031301998,-0.241049632,-2.559995425,-0.005183325,-0.045966936,0.010234827,0.066358857,0.172848642
300.2999878,-0.196487755,0.054206248,-0.248454824,-2.562450815,-0.004928807,-0.047524009,0.090851493,0.08913935,0.22741884
300.6485291,-0.123198897,0.029636988,-0.245935738,-2.564881592,-0.004793756,-0.048576663,-0.085889041,0.199124843,-0.021059513
300.6485291,-0.124927819,0.029718747,-0.243466452,-2.564881592,-0.004793756,-0.048576663,-0.085889041,0.199124843,-0.021059513
300.6485291,-0.124927819,0.029718747,-0.243466452,-2.567269797,-0.00463768,-0.049406093,-0.081772849,0.164512426,0.107684731
300.9918518,-0.106667325,0.046717703,-0.242095724,-2.569660284,-0.004374906,-0.050128256,0.023860218,0.169420779,0.192702472
300.9918518,-0.088525608,0.056812417,-0.246836409,-2.572086742,-0.004062042,-0.050812737,-0.072842538,0.123921253,0.066082299
300.9918518,-0.080046631,0.040485639,-0.239510864,-2.57445305,-0.003805122,-0.051327772,-0.048349783,0.102578014,-0.050276041
301.328186,-0.111871675,0.051430166,-0.246614307,-2.576818528,-0.003527139,-0.051924664,0.206254974,0.111990944,-0.06496954
301.328186,-0.063501209,0.014811437,-0.232564807,-2.579105703,-0.003516819,-0.052318381,0.0511695,0.093195185,-0.239413261
301.6454468,-0.096385658,0.035247471,-0.227418512,-2.581360752,-0.003464,-0.052881335,-0.036453601,0.060024299,-0.162080646
301.6454468,-0.025686987,-0.00470767,-0.214244381,-2.583507252,-0.003647852,-0.05299771,-0.07427945,0.102022201,-0.18892765
301.6454468,-0.062178686,0.009657421,-0.22623606,-2.585678769,-0.003746151,-0.053216056,0.121314391,0.175473332,0.109995306
301.6454468,-0.034338001,0.016566725,-0.209971607,-2.587731876,-0.0037662,-0.053222534,-0.107501626,0.220831215,0.063394547
301.9454346,-0.013508618,0.027765585,-0.211974308,-2.589773658,-0.003651519,-0.053036508,0.020801721,0.271890014,0.113423169
301.9454346,0.010869426,0.028559472,-0.197129577,-2.59173068,-0.003541328,-0.052433424,0.058075696,0.262208581,-0.012887418
302.2493286,0.09811645,0.035071168,-0.242763117,-2.594058315,-0.00336731,-0.051316853,0.213892505,0.298649102,0.087162018
302.2493286,0.026327478,0.062614381,-0.204420254,-2.596167095,-0.00304733,-0.050541519,0.133753955,0.299653262,-0.109345913
302.2493286,0.168465182,0.014624217,-0.187184542,-2.598006951,-0.003002174,-0.048746689,0.134304166,0.310328692,-0.27325803
302.5314331,0.092223935,0.04491581,-0.208062917,-2.599979181,-0.002671824,-0.047338254,0.097368151,0.273864895,0.059848964
302.8089294,0.091063067,0.054864846,-0.199782893,-2.601922506,-0.00232004,-0.045977585,0.042863034,0.204745382,-0.15421325
302.8089294,0.116336994,0.041734129,-0.192627504,-2.603831808,-0.002126487,-0.044669346,0.107031152,0.086745411,-0.199243188
302.8089294,0.091509677,0.030595992,-0.196496814,-2.60577901,-0.00198281,-0.043614764,-0.002258588,0.144730806,-0.119896352
302.8089294,0.056022257,0.031089475,-0.202348307,-2.60773048,-0.001875754,-0.042598062,0.170669079,0.205638558,-0.097894907
303.0874329,0.106247611,0.003964115,-0.201468408,-2.609697512,-0.001919316,-0.041273752,0.105405144,0.183800459,-0.070968688
303.0874329,0.052489571,0.03318432,-0.203667909,-2.61171775,-0.001800151,-0.040263924,0.002914792,0.270961821,0.15018791
303.3761902,0.122819394,0.014030864,-0.202752575,-2.613740228,-0.001807083,-0.038834388,-0.0607531,0.274192512,-0.030389071
303.3761902,0.137518451,0.020065054,-0.219097197,-2.615870226,-0.001800569,-0.0372241,0.162751243,0.266251594,0.074271202
303.3761902,0.11700625,0.013550696,-0.221011475,-2.618013405,-0.001790767,-0.035703357,0.10108076,0.251934558,0.085496187
303.681366,0.122452147,0.021140439,-0.211173758,-2.620070456,-0.001792299,-0.034012339,-0.003547115,0.186701566,-0.041993022
303.681366,0.217984796,-0.001086037,-0.200959742,-2.622059703,-0.001935328,-0.031716398,-0.005265418,0.084827326,-0.073259294
303.9726563,0.162730053,0.023630228,-0.214410037,-2.62415463,-0.001885593,-0.029704079,0.164576277,0.184268519,0.198805809
303.9726563,0.197008133,0.022071214,-0.213476866,-2.626218838,-0.00179636,-0.027431169,-0.172991544,0.281452954,-0.077694595
303.9726563,0.253945202,0.031540617,-0.204719588,-2.628245441,-0.00162133,-0.024627049,-0.085352264,0.267688483,-0.089294195
304.2703857,0.221853837,0.024908546,-0.230920032,-2.630500839,-0.001528926,-0.022076184,0.270085126,0.07709603,0.06283468
304.2703857,0.2102025,0.00641156,-0.218313694,-2.632675194,-0.001622638,-0.019733368,-0.102608472,0.087772496,-0.139341176
304.5850525,0.248882517,-0.001796302,-0.219398931,-2.634847297,-0.001753707,-0.017095715,0.182038203,-0.05852811,0.08353138
304.5850525,0.128590196,0.012746422,-0.237893522,-2.637132649,-0.001783657,-0.015219569,0.182068229,-0.056649923,0.083561659
304.5850525,0.164699465,-0.014870026,-0.217349634,-2.639288521,-0.002054618,-0.013359586,-0.098574758,-0.003136854,-0.172225833
304.90271,0.127946779,-0.017292438,-0.225008875,-2.64150205,-0.002359607,-0.01179336,0.095227331,-0.048230212,-0.09066385
304.90271,0.126786441,-0.000801611,-0.237912968,-2.643760826,-0.002544301,-0.010259169,-0.080475785,0.046887912,-0.088419557
305.2220154,0.078234352,-0.008397213,-0.220914274,-2.64597029,-0.002760295,-0.00908812,0.161317647,-0.001271328,-0.173140883
305.2220154,0.05196413,0.005874667,-0.24816747,-2.648346288,-0.002941862,-0.008188044,-0.163985789,-0.01291291,-0.388892889
305.2220154,0.143287122,-0.020209132,-0.203647673,-2.650448765,-0.003270586,-0.006724518,0.229684427,-0.001514163,0.171282411
305.5435791,0.039581232,0.012486497,-0.243347138,-2.652772721,-0.003364379,-0.005878313,-0.044895109,-0.043010078,0.078742921
305.5435791,0.095419198,-0.022343388,-0.228852093,-2.655030901,-0.003638753,-0.00462952,-0.160632953,0.063129142,0.029004872
305.8695068,0.09689033,0.016640496,-0.229160219,-2.657281745,-0.003649553,-0.003317976,-0.158760548,0.033970475,0.054385424
305.8695068,0.102123708,-0.00956501,-0.212308794,-2.659408975,-0.003827421,-0.002061493,0.014787909,0.014049293,-0.003076494
305.8695068,0.124346718,-0.012693425,-0.217781857,-2.661528813,-0.004026266,-0.000540893,-0.000607479,0.030616919,0.34128505
306.1757202,0.050936684,0.016105201,-0.222002432,-2.663710746,-0.003940498,0.000529608,-0.3045111,0.013195077,0.076438606
306.1757202,0.094267383,0.025334384,-0.212062985,-2.66584831,-0.003886767,0.001744371,-0.020354696,0.019049998,0.048437595
306.483429,0.147971883,0.007112504,-0.217065737,-2.668004607,-0.003956598,0.003227352,0.142633289,-0.02659961,0.320360482
306.483429,0.007249124,0.03385064,-0.232367456,-2.670202422,-0.003727451,0.00382372,-0.191138014,0.007887254,0.072709143
306.483429,0.021519672,0.033084717,-0.218446583,-2.672342126,-0.003481015,0.004454137,-0.112679921,0.046879034,-0.170975447
306.79245,0.073315226,0.011781292,-0.205317736,-2.674488986,-0.00350698,0.005466548,0.187852651,0.051570039,0.138513446
306.79245,0.090444148,0.036993705,-0.232106999,-2.676784133,-0.003275276,0.006240426,-0.052567944,-0.018928951,0.306539476
307.1053467,-0.127985924,0.064177923,-0.204003736,-2.678873459,-0.002822059,0.00570507,-0.29620102,-0.227137074,-0.346059084
307.1053467,0.018833609,-0.006703709,-0.224098086,-2.68104557,-0.002767873,0.005976105,0.129266575,0.002367078,0.181374788
307.1053467,-0.143472746,0.0678427,-0.235098273,-2.683341471,-0.002260168,0.005146163,-0.089411892,-0.160069704,0.012801588
307.4258423,-0.093532078,0.008639561,-0.221167803,-2.685600518,-0.002191898,0.004390331,0.043500111,-0.027693516,-0.08733809
307.4258423,-0.093670301,0.025940787,-0.230452389,-2.687907612,-0.002145454,0.003687778,0.166378424,0.031066578,0.217840612
307.7488708,-0.106091283,0.007543936,-0.241031528,-2.690120888,-0.002041712,0.002843139,-0.286163807,0.022911951,0.166177332
307.7488708,-0.182810292,0.057950649,-0.165837169,-2.691866474,-0.001686438,0.001791447,-0.381230801,0.076500699,-0.153674304
308.0817261,0.008712797,-0.018680478,-0.23789832,-2.694357664,-0.001794138,0.001802854,0.245524973,-0.017649869,0.344845414
308.0817261,-0.200835899,0.047336888,-0.307803094,-2.697305069,-0.001578083,0.000480721,0.089577459,-0.171454698,0.033094943
308.0817261,-0.129567042,-0.012774651,-0.222740665,-2.699584867,-0.001746424,-0.000805295,-0.14584969,-0.035230082,-0.018846452
308.4208374,-0.200582102,-0.019396601,-0.22640118,-2.701870465,-0.002062965,-0.002404102,0.123769596,-0.014751378,-0.036717653
308.4208374,-0.165946633,-0.015792279,-0.239564121,-2.704173332,-0.002402459,-0.003830501,-0.163442388,-0.130849317,0.11400342
308.4208374,-0.172863647,-0.019378757,-0.237846389,-2.706479796,-0.00266451,-0.005285134,-0.174212143,0.153888136,0.024869561
308.7538147,-0.181963414,-0.013157347,-0.244413465,-2.708860816,-0.002948108,-0.006540998,0.202658698,-0.064852774,-0.074778557
308.7538147,-0.126014397,-0.007608918,-0.26096049,-2.711337447,-0.003186076,-0.007690936,0.186188549,0.043889709,0.190105081
308.7538147,-0.195017427,0.026106436,-0.226682141,-2.713597559,-0.00317095,-0.009248111,-0.431548208,0.127276361,-0.270067394
309.0915833,-0.084787056,-0.021448301,-0.209736988,-2.715731628,-0.003423989,-0.009864563,0.075113811,0.11059168,-0.030236483
309.0915833,-0.096223205,0.027087543,-0.253139049,-2.718183847,-0.003282873,-0.010531666,0.160269141,0.149016812,0.232650876
309.423584,-0.151749581,0.023100525,-0.237530261,-2.720587967,-0.003167488,-0.011619947,-0.082384869,0.018074965,-0.194835782
309.423584,-0.12123961,-0.002949185,-0.231367975,-2.722947977,-0.003183716,-0.012611684,-0.003038219,0.050880302,-0.065865338
309.423584,-0.147043779,0.036046952,-0.242654458,-2.725336944,-0.002848214,-0.013699148,-0.175584838,0.198503748,-0.156668425
309.7630005,-0.163378268,0.035004854,-0.229837984,-2.727588059,-0.002502701,-0.01474651,-0.091015615,0.125632092,-0.104939878
309.7630005,-0.119099759,0.022890668,-0.222726554,-2.729805892,-0.002213663,-0.015669604,0.160342947,0.041623868,0.118282855
310.0860901,-0.180008113,0.083630711,-0.237258092,-2.73209527,-0.001574358,-0.01706983,-0.220271468,0.140579164,-0.077371836
310.0860901,-0.108787999,0.050650127,-0.185781315,-2.733983351,-0.001126393,-0.017910932,-0.424714684,0.314129859,-0.274331152
310.3686829,-0.079189092,0.050972369,-0.197244897,-2.735927572,-0.000656955,-0.018438832,0.085847475,0.265963465,0.206586182
310.3686829,-0.108715028,0.067877583,-0.215686217,-2.738016529,-5.75E-05,-0.019113311,-0.000125542,0.240843683,0.082184076
310.3686829,-0.04338982,0.048072986,-0.203085467,-2.739980269,0.000336765,-0.019209941,-0.160768017,0.14019154,0.011152506
310.6547852,-0.028385568,0.063589625,-0.195247263,-2.741912102,0.000782603,-0.019066184,-0.076116055,0.208176017,0.085282207
310.6547852,0.062223427,0.050720967,-0.185068652,-2.743738323,0.001145943,-0.018248045,-0.1043576,0.324488789,0.007324696
310.911438,0.072715215,0.056083508,-0.170451626,-2.745421273,0.001502247,-0.017248085,-0.062020212,0.276051342,0.204226136
310.911438,0.10139107,0.047327567,-0.17052193,-2.747099351,0.001860543,-0.01600539,0.024077365,0.282651246,0.013786018
310.911438,0.102307998,0.056767676,-0.176581964,-2.748823279,0.002325328,-0.014655479,-0.133889198,0.155996665,-0.06347996
310.911438,0.108874552,0.041644115,-0.161649615,-2.750420249,0.002652461,-0.013195374,-0.207733601,0.212039098,-0.301894248
311.1540833,0.16798608,0.042983953,-0.152647868,-2.751924187,0.002988275,-0.011395993,0.231047571,0.207859114,0.112403035
311.3752136,0.025917351,0.084294908,-0.167987138,-2.75353201,0.003628863,-0.010428491,-0.111344889,0.076442488,0
311.3752136,0.159475416,0.039884567,-0.140498251,-2.754957385,0.003933979,-0.008660398,-0.252473801,0.201976702,-0.171401501
311.5991516,0.182703495,0.053876814,-0.165787905,-2.756590859,0.004338165,-0.006737348,0.162816674,0.32859689,0.241346657
311.5991516,0.11358542,0.063255668,-0.156876966,-2.758199114,0.004812138,-0.005087348,0.027378093,0.215991065,-0.047677755
311.5991516,0.179018214,0.026765568,-0.141264185,-2.758199114,0.004812138,-0.005087348,0.027378093,0.215991065,-0.047677755
311.5991516,0.131674409,0.050569169,-0.143748119,-2.761120657,0.005430638,-0.001354115,0.018305417,0.177538291,-0.088730276
311.8088989,0.173810139,0.040697094,-0.154043898,-2.761120657,0.005430638,-0.001354115,0.018305417,0.177538291,-0.088730276
311.8088989,0.173810139,0.040697094,-0.154043898,-2.762658488,0.005732784,0.000618699,0.023770725,0.181634501,-0.039308012
312.0281372,0.129487157,0.044955492,-0.154742971,-2.764197556,0.006066852,0.002289641,-0.137330338,0.113071285,-0.046163619
312.0281372,0.169549882,0.019561717,-0.152559444,-2.765725485,0.006271523,0.004214215,0.075599559,0.037376743,-0.088941574
312.0281372,0.11895781,0.050449591,-0.168702736,-2.767361849,0.00659088,0.005806306,-0.069068275,0.04487592,0.00231123
312.2537537,0.170984268,0.013835388,-0.152618036,-2.768898105,0.006677612,0.00763806,-0.181993768,0.121645786,-0.170003891
312.2537537,0.139898777,0.03445065,-0.167072341,-2.770509619,0.006930658,0.009381989,0.149723202,0.043893501,0.034065783
312.2537537,0.127949715,0.025223598,-0.174738258,-2.772194764,0.007161449,0.01101682,-0.076658249,-0.011964871,-0.025141358
312.4895325,0.110020243,0.036711942,-0.166543171,-2.773853936,0.007413497,0.012472009,-0.185842946,-0.051660955,-0.021711826
312.4895325,0.147004887,0.057762098,-0.177657604,-2.775583173,0.007811757,0.013953094,0.089683183,0.014152867,-0.051962137
312.7329407,0.098172903,0.057430536,-0.174923614,-2.77728436,0.008244007,0.015156918,-0.167203858,-0.006217889,-0.083858728
312.7329407,0.06973727,0.049543586,-0.17029424,-2.778929045,0.008670777,0.016278297,-0.234861165,-0.101515561,-0.033632815
312.7329407,0.09581361,0.041392978,-0.181243822,-2.780708607,0.009128613,0.017446414,0.159852818,-0.101902574,0.061069965
312.9781189,0.009037171,0.093173884,-0.156607717,-2.782351323,0.009727211,0.018027421,-0.153688803,-0.086977683,0.141330481
313.2237854,0.132838741,0.026222017,-0.159638926,-2.78397729,0.009936227,0.019185245,-0.224805415,-0.05115068,-0.078083992
313.2237854,0.007746603,0.071607076,-0.207692206,-2.785869862,0.01049533,0.019753774,0.146095008,0.1001295,0.225182891
313.2237854,0.081237867,0.03625894,-0.173587233,-2.787566466,0.010837347,0.020766582,-0.284300834,0.01035355,-0.050674438
313.2237854,0.058202587,0.057533868,-0.185293421,-2.789398449,0.011269655,0.02160775,0.037303399,-0.056583982,0.17726922
313.4802246,0.045647379,0.065821357,-0.185071051,-2.791279456,0.011722965,0.022358319,-0.019668691,-0.018128205,-0.027830601
313.4802246,0.085993469,0.020830447,-0.170166135,-2.793011578,0.011866144,0.023316638,-0.237539396,-0.005877465,-0.155768633
313.7295227,0.046628486,0.013752564,-0.169081703,-2.794720571,0.011982698,0.024014709,0.038345121,-0.019521996,0.017263353
313.7295227,-0.007128483,0.021817414,-0.182180196,-2.796502171,0.012110649,0.024382794,-0.053976439,-0.0107002,0.066492975
313.7295227,0.010040384,-0.016768327,-0.164384946,-2.798128591,0.011966559,0.024714058,-0.233260229,-0.098045632,-0.155879736
313.968811,-0.022110894,-0.018685004,-0.160322294,-2.799686223,0.011770733,0.024755264,0.183821157,-0.099896483,0.021520257
313.968811,-0.064512677,-0.002671417,-0.156414375,-2.801122859,0.011640994,0.024494219,-0.101556271,-0.015517265,0.005262315
314.1703491,-0.021904767,-0.035000063,-0.135961026,-2.802429779,0.011280785,0.024575549,-0.343200117,0.043432549,-0.141631901
314.1703491,-0.025962891,-0.004634167,-0.155554444,-2.803938912,0.011096854,0.024471163,0.183549494,0.084648862,0.083470404
314.3790588,-0.036321789,-0.037136983,-0.156397328,-2.805413671,0.010704779,0.02425441,-0.090426438,0.047597189,-0.106339395
314.3790588,-0.057806574,-0.046636213,-0.139440179,-2.806760202,0.010185149,0.024106153,-0.103959739,0.002206484,-0.093055189
314.3790588,-0.064095892,-0.032894298,-0.15386866,-2.80822953,0.009793101,0.02376877,0.109414756,-0.033913076,0.021687627
314.5827332,-0.050689276,-0.043576505,-0.145809397,-2.809640696,0.009298431,0.023462731,-0.226515979,0.14868769,-0.10093528
314.5827332,-0.032592032,-0.045448974,-0.140293196,-2.811010153,0.008831132,0.023355472,-0.108876035,0.125097066,-0.024283648
314.5827332,-0.105608448,-0.016423183,-0.163690403,-2.812548646,0.008518871,0.022912052,0.094591945,-0.032466538,0.069723487
314.7902222,-0.018244784,-0.054864582,-0.138238296,-2.813956408,0.007979087,0.022834802,-0.228659287,0.071627893,-0.179385304
314.7902222,-0.079412535,-0.025753301,-0.151396707,-2.815457526,0.007654148,0.022420579,0.038114853,0.076157115,0.082055449
315.0031433,-0.046035402,-0.025924008,-0.157936111,-2.816989636,0.007335161,0.022260357,-0.101641566,0.104149193,-0.119766533
315.0031433,-0.003278618,-0.050346527,-0.153587699,-2.818487214,0.006877044,0.02243697,-0.231676146,0.090013236,-0.032410681
315.0031433,-0.082198732,-0.006885869,-0.179396391,-2.8201623,0.006714451,0.022146581,-0.254096448,0.157105386,-0.1625911
315.2293701,0.035490349,-0.042230811,-0.156860724,-2.821686919,0.006355985,0.022533198,-0.118193768,0.033148497,0.051376581
315.2293701,-0.011949337,-0.021975607,-0.157803476,-2.823273043,0.006046004,0.022786523,0.11298202,0.161011323,0.062587976
315.4647217,-0.004263455,-0.015573101,-0.181508541,-2.825056474,0.005741756,0.022968592,-0.293070227,0.130325034,-0.145391703
315.4647217,0.027917651,-0.053970024,-0.171287864,-2.826723918,0.005217035,0.023382929,-0.040362954,0.055315569,0.038637817
315.4647217,-0.048951562,-0.03103861,-0.174644515,-2.828437014,0.004840694,0.023488069,0.016776448,0.124649927,-0.106626391
315.7106934,0.004550543,-0.031889223,-0.183230802,-2.83023552,0.004431854,0.023769146,-0.257045269,0.001518181,-0.105486751
315.7106934,0.015162974,-0.070568971,-0.168385014,-2.831938088,0.00379918,0.024019727,0.158962786,0.107878618,0.034371912
315.9670715,-0.089942142,-0.016200274,-0.205076978,-2.833832447,0.00348046,0.023711239,-0.254826486,0.189356938,-0.256986141
315.9670715,0.019010443,-0.069427811,-0.180985495,-2.835581932,0.002890397,0.023894119,-0.197503686,0.092219442,-0.017150939
315.9670715,-0.07914409,-0.028213263,-0.191606447,-2.837420507,0.002526359,0.023554672,-0.023524832,0.052374661,-0.104437411
316.2254333,-0.080186449,-0.020151341,-0.180168971,-2.839189373,0.002175282,0.023205323,-0.252101064,-0.054878097,-0.133877873
316.2254333,-0.036018722,-0.053824883,-0.165844887,-2.840870564,0.001663855,0.022980982,0.102689415,0.108242683,0.225289643
316.4740295,-0.13600044,0.002226136,-0.180714116,-2.842692216,0.001545627,0.02214236,-0.186727792,0.115581959,-0.187029481
316.4740295,-0.014452709,-0.050316166,-0.164208114,-2.844355624,0.001157222,0.021984022,-0.306196809,0.127813607,0.010438561
316.4740295,-0.085060567,-0.018601114,-0.17664507,-2.846031509,0.000911197,0.021650425,0.052966692,0.206627011,0.000787258
316.7157593,-0.071952485,0.01958755,-0.186255366,-2.847742319,0.000869174,0.021366758,-0.237839028,-0.008363361,-0.033416808
316.7157593,0.005728459,-0.044157341,-0.16272074,-2.849338667,0.000526094,0.021529925,-0.051277343,0.057901043,0.176998675
316.9599915,-0.080276459,0.014215421,-0.190931067,-2.851185807,0.000605584,0.021190034,-0.100963242,0.127049327,0.104374051
316.9599915,0.001176318,-0.006483998,-0.162734061,-2.85283502,0.000529371,0.021298519,-0.316203713,0.133551359,-0.100721598
316.9599915,-0.013447099,0.002185923,-0.165452346,-2.854462769,0.000429751,0.021468418,0.180401742,0.133233145,0.187574387
317.201355,-0.043128829,0.029107019,-0.200910732,-2.8562861,0.000578937,0.021359181,-0.307601601,0.097341932,-0.098586679
317.201355,0.023171898,-0.031058583,-0.1640715,-2.857878527,0.000370277,0.021802152,-0.196812287,0.150092468,0.020330846
317.4421692,-0.016735304,0.025834261,-0.181940243,-2.859613444,0.000464205,0.02201849,0.078011297,0.152918279,0.158769011
317.4421692,0.007278685,0.024590299,-0.177454948,-2.861347856,0.000555217,0.022284941,-0.253714323,0.127718061,-0.078343213
317.4421692,0.026634274,-0.001535046,-0.165739432,-2.862979605,0.000557124,0.022747321,-0.118813269,0.100074194,0.145569086
317.6832886,-0.037503168,0.047231961,-0.183546662,-2.864696048,0.000938567,0.022869336,-0.147454351,0.083686315,-0.03189373
317.6832886,0.04471847,-0.001716407,-0.16274631,-2.866294366,0.000972552,0.023555682,-0.233639479,0.058448628,0.010479212
317.9208374,0.007203851,0.04372298,-0.17544505,-2.867975906,0.001308499,0.023899818,-0.04401907,0.115265861,0.218905687
317.9208374,-0.00986062,0.054960985,-0.169218853,-2.869639393,0.001720485,0.02413551,-0.333020896,-0.000342952,-0.224017441
317.9208374,0.047856204,0.018179536,-0.161747351,-2.871240864,0.001850344,0.02472703,0.076944359,-0.006525796,0.220196962
318.1566467,-0.08391647,0.056279518,-0.181222782,-2.872949784,0.002303062,0.024362862,-0.139542729,0.044577599,0.022725761
318.1566467,0.004168646,-0.011235344,-0.157741964,-2.87450426,0.002335352,0.024592004,-0.333239585,0.062201969,-0.043991387
318.3909912,-0.047915593,0.037708763,-0.175877288,-2.876196136,0.002667495,0.024447392,0.020141944,0.054610938,0.291231692
318.3909912,-0.084222205,0.056250755,-0.180116236,-2.877944753,0.003066043,0.024029873,-0.271562546,0.008538734,-0.272144318
318.3909912,-0.005177984,0.001781921,-0.165284559,-2.879565938,0.003067634,0.024031267,0.039928786,0.002833342,0.113216341
318.6325378,-0.142022118,0.040957019,-0.179179877,-2.881276224,0.00335991,0.023107261,-0.194342107,-0.010557968,-0.094694316
318.6325378,-0.053862698,-0.00629225,-0.16999276,-2.882895329,0.003309213,0.022761105,-0.231599122,-0.037439488,-0.128072441
318.8649292,-0.06428951,0.007972972,-0.159730271,-2.884481975,0.003311226,0.022307321,0.158672869,-0.038824502,0.248936713
318.8649292,-0.179069355,0.055567387,-0.168039337,-2.886113388,0.003592152,0.021199088,-0.310160041,-0.012056017,-0.160509765
318.8649292,-0.025348499,-0.024644626,-0.134769261,-2.887490326,0.003452776,0.020990762,-0.166420087,0.017108617,-0.063291132
319.0801697,-0.117591612,0.045933671,-0.165024906,-2.889032921,0.00372799,0.020274862,0.004584277,-0.018718477,0.058350503
319.0801697,-0.03949308,-0.02037904,-0.150464609,-2.89047036,0.003602929,0.020028084,-0.295675069,0.01384089,-0.152963042
319.2879944,-0.105853729,0.019535085,-0.148166835,-2.891887593,0.003675173,0.019434287,0.038175907,0.072816797,0.101458192
319.2879944,-0.064441837,0.021124726,-0.143859163,-2.893294911,0.003729928,0.019055243,-0.236064106,0.053348616,-0.146077991
319.2879944,-0.017132914,-0.00264585,-0.136672631,-2.894669169,0.003679149,0.01896405,-0.015020246,0.08881031,0.10161984
319.4890442,-0.107954964,0.037813161,-0.14632073,-2.896089623,0.003884391,0.018393848,-0.166943878,0.044309452,-0.070809841
319.4890442,0.003118295,-0.025506426,-0.132125542,-2.897398981,0.003707123,0.018472901,-0.13211371,0.035767373,-0.055902779
319.6834106,-0.111449033,0.040398821,-0.150394037,-2.898806855,0.003895564,0.017907309,-0.143929586,0.038756482,0.008514106
319.6834106,-0.019556656,-0.003767041,-0.127660751,-2.900072083,0.003787558,0.017893076,-0.209724173,0.090973072,-0.19332844
319.8752441,-0.047764592,0.015236477,-0.138455078,-2.901439145,0.003843334,0.017599319,0.099271484,0.107112713,0.202489555
319.8752441,-0.112630144,0.03664403,-0.140898004,-2.902843222,0.004015613,0.016962268,-0.316580951,0.054549322,-0.211120129
319.8752441,-0.025718413,-0.019624569,-0.131370813,-2.904168314,0.003897533,0.016828315,-0.125712633,0.039888855,0.027102828
319.8752441,-0.135147169,0.04165823,-0.15549852,-2.90561093,0.004162381,0.016036205,-0.157807663,0.081027038,-0.044570982
320.0720215,-0.007191334,-0.018777682,-0.124035127,-2.90687299,0.004010434,0.016054321,-0.190309346,0.109945312,-0.0506742
320.0720215,-0.108899318,0.056339972,-0.158098564,-2.908357684,0.00435155,0.015341644,0.052757319,0.101068407,0.243387699
320.2719116,-0.056910686,0.00985343,-0.149720252,-2.908357684,0.00435155,0.015341644,0.052757319,0.101068407,0.243387699
320.2719116,-0.026658509,0.017180318,-0.138181567,-2.909786196,0.004394991,0.015067934,-0.379582942,0.119837359,-0.389909089
320.2719116,-0.078540348,0.051247742,-0.143282056,-2.911140759,0.004505558,0.015021743,0.011053439,0.201974958,0.199446559
320.4674377,-0.078540348,0.051247742,-0.143282056,-2.912532885,0.004913337,0.014621511,-0.078008384,0.220937684,-0.000958323
320.4674377,0.00912905,0.002886867,-0.144455984,-2.913915996,0.005005604,0.014848915,-0.105780177,0.037846245,-0.016358256
320.4674377,-0.063998692,0.058768775,-0.154338434,-2.915338043,0.005464684,0.014706997,-0.204796284,0.153793037,0.003325284
320.6635437,0.024153274,0.021275993,-0.125996813,-2.916623346,0.005682904,0.015226376,-0.300427914,0.187821299,-0.104975343
320.8703308,0.015616244,0.081180871,-0.166746378,-2.918179542,0.006230348,0.015526401,0.203098178,0.189159244,0.214627326
320.8703308,-0.002491653,0.036958549,-0.140423954,-2.919587394,0.006471897,0.015851793,-0.257547051,0.024186533,-0.166452289
320.8703308,0.03031929,0.026287796,-0.146643236,-2.921006702,0.006736837,0.016447565,-0.030730905,0.17845422,0.158334911
320.8703308,-0.011170896,0.082780369,-0.139785603,-2.92238852,0.007370783,0.016881587,-0.27095899,0.175241858,-0.050035596
321.0668335,0.158309743,0.021142304,-0.122920066,-2.923720003,0.007597633,0.018388135,-0.128790841,0.159339726,-0.007156193
321.0668335,-0.01986585,0.109005846,-0.157828778,-2.925224556,0.00843332,0.018777544,0.023754029,0.144806445,0.299974024
321.2686462,0.128526017,0.010959707,-0.135089651,-2.926549563,0.008714718,0.020060099,-0.379466265,0.071200192,-0.421656668
321.2686462,0.028548021,0.079549156,-0.147460565,-2.927960881,0.00929394,0.02083734,0.073124856,0.140642777,0.125532866
321.2686462,0.050134808,0.050652258,-0.132404372,-2.929317451,0.009688199,0.021592278,-0.21321933,0.097865134,-0.110433578
321.4669495,0.027628431,0.033091374,-0.148093864,-2.930758296,0.01001868,0.022089747,-0.002902428,0.036229301,-0.001576245
321.4669495,-0.013995178,0.046551522,-0.132984951,-2.932068951,0.010380257,0.022332819,-0.355955929,0.053272538,-0.154188514
321.6579895,0.049493518,0.004855475,-0.131943122,-2.933373554,0.010482728,0.022867308,-0.035578027,0.091389939,-0.055309415
321.6579895,-0.111824535,0.071771927,-0.14976126,-2.934763284,0.010952014,0.022420186,-0.095282465,0.044219978,0.061165988
321.6579895,0.058936287,-0.036522325,-0.114030965,-2.935931852,0.010722257,0.022952217,-0.251165032,0.006407175,-0.31822288
321.8420715,-0.113580093,0.067760408,-0.14574948,-2.937227752,0.011077774,0.022391772,0.075810522,0.033113651,0.34296459
321.8420715,0.030902522,-0.025345303,-0.113248527,-2.938362119,0.010911024,0.022730101,-0.384914219,0.082967073,-0.203290641
322.0148926,-0.058332816,0.041848116,-0.135641456,-2.939633544,0.011104951,0.02254997,0.074120156,0.105888575,0.3056072
322.0148926,0.003199788,0.003344664,-0.117567912,-2.940809384,0.011068283,0.022692754,-0.316803813,0.038557131,-0.079344392
322.1921997,-0.011766111,0.005454686,-0.133581489,-2.942091026,0.011033522,0.022844826,0.00900618,0.08041162,0.152143657
322.1921997,-0.025660889,0.005693306,-0.130692497,-2.943367951,0.011042195,0.022850925,-0.240178525,0.019779297,-0.012041152
322.1921997,0.012730177,-0.019082882,-0.128512695,-2.944656487,0.010848559,0.023188617,-0.057031751,0.031179933,-0.023521423
322.3786011,-0.062671103,0.022049641,-0.142688707,-2.946010256,0.010893816,0.022987907,-0.055642772,0.050403472,0.113689721
322.3786011,0.023649404,-0.041178331,-0.126196548,-2.947281694,0.010561657,0.023322521,-0.223980889,-0.025494508,-0.16783911
322.3786011,-0.092913695,0.043859601,-0.154374659,-2.948708287,0.010734329,0.022939011,-0.013796141,0.028122472,0.200621903
322.5700073,0.031734761,-0.030650588,-0.130987838,-2.950027897,0.010541621,0.023175719,-0.255317688,0.042382233,-0.249851465
322.5700073,-0.101966046,0.031726506,-0.153456926,-2.9514568,0.010656754,0.022734982,0.046782549,0.016214758,0.082799017
322.7648315,0.01311447,-0.031966455,-0.13224645,-2.952762772,0.010425683,0.022931917,-0.306059241,0.013024429,-0.238232672
322.7648315,-0.081961975,0.032145951,-0.160455987,-2.954240041,0.010573194,0.022569012,0.040487975,0.06576176,0.117853105
322.7648315,-0.02450907,-0.010934141,-0.129947349,-2.955551537,0.010456084,0.022491028,-0.328459173,-0.010671278,-0.179858088
322.9631653,-0.066718839,0.016249809,-0.147768691,-2.95695716,0.010470246,0.02210969,0.030779503,0.053018671,0.003133655
322.9631653,-0.074109644,0.003975833,-0.138832986,-2.958316253,0.010404847,0.02168475,-0.214440167,0.058284841,-0.014693856
323.1627197,-0.017670074,0.003542271,-0.140703321,-2.959712866,0.010344933,0.021639181,-0.093805254,0.09779001,0.1392079
323.1627197,-0.0946839,0.036294091,-0.145800352,-2.961145476,0.010496347,0.021161695,-0.159691781,0.069586836,-0.226826549
323.1627197,0.00675351,-0.026690466,-0.132620364,-2.962523638,0.010323551,0.021237862,-0.058902353,0.074286491,0.158549607
323.3665771,-0.134698153,0.055315185,-0.141944885,-2.963942224,0.010528741,0.020612362,-0.256953329,0.107214436,-0.293664157
323.3665771,0.049220543,-0.024115989,-0.131149501,-2.965294501,0.010337217,0.020947371,0.034742355,0.117773175,0.302308679
323.5661316,-0.145712465,0.05407735,-0.153461456,-2.96675994,0.010640685,0.020238688,-0.30728215,0.066541925,-0.296663702
323.5661316,0.033533726,-0.034319356,-0.12708658,-2.968064139,0.010434381,0.02050385,0.061286844,0.099583238,0.181162059
323.5661316,-0.105646804,0.049687929,-0.14966166,-2.969454372,0.010672641,0.020024751,-0.292085916,0.046766005,-0.202482462
323.7554016,0.023739418,-0.035423771,-0.120876618,-2.970684267,0.010450701,0.020294706,0.023657551,0.136651099,0.127165318
323.7554016,-0.080838926,0.042871036,-0.145301536,-2.972037842,0.010649712,0.020014351,-0.268900096,0.105929174,-0.078077137
323.9382019,0.018045846,-0.020931646,-0.120226279,-2.973258217,0.010508084,0.02026248,0.032694347,0.149436221,0.049269259
323.9382019,-0.064528659,0.031734761,-0.141966999,-2.974582908,0.010638792,0.0200939,-0.255491942,0.103201188,-0.031905472
323.9382019,0.018433336,-0.01631639,-0.120603643,-2.975793593,0.010541685,0.020342943,-0.042275183,0.161327064,0.024792135
324.1206665,-0.058661982,0.031441014,-0.141813591,-2.977108784,0.010695161,0.020246696,-0.227090687,0.149511978,-0.027987659
324.1206665,0.015608255,-0.006080263,-0.119336776,-2.978301345,0.010632774,0.020545728,-0.030556014,0.121277377,-0.010918558
324.3017273,-0.039550871,0.026955985,-0.140337929,-2.979606411,0.010741311,0.020514597,-0.19046995,0.032317985,0.006933749
324.3017273,-0.003499926,-0.01362127,-0.119107746,-2.980804086,0.010622985,0.020700119,-0.156064972,0.084963411,-0.102413297
324.473938,-0.026304575,0.016212791,-0.131176934,-2.982031978,0.010661451,0.020811989,-0.149862617,0.092018142,0.093811989
324.473938,-0.001238636,-0.012230568,-0.111184046,-2.983173568,0.010572013,0.021036302,-0.065666594,0.130999997,-0.031542718
324.473938,-0.025534121,0.013168532,-0.13259612,-2.984425069,0.0105997,0.02110215,-0.165914014,0.090630122,0.058406174
324.6437683,-0.001545432,-0.014465492,-0.11885155,-2.985579601,0.010478477,0.021284692,-0.17365092,0.108299419,-0.146613538
324.6437683,-0.033171803,0.005870672,-0.139001563,-2.986820506,0.010456103,0.021350825,-0.115782432,0.12206801,0.053321183
324.6437683,-0.008864865,-0.015921708,-0.118841432,-2.987981724,0.010303754,0.021465204,-0.122389562,0.066671029,-0.108789027
324.8171692,-0.045363486,0.003183809,-0.139826074,-2.989281589,0.010175312,0.021387671,-0.112739533,0.099293001,-0.014090002
324.8171692,-0.011859057,-0.015844477,-0.119276859,-2.990474877,0.00996341,0.021455906,-0.20092158,0.085933566,-0.149358511
324.9961243,-0.023023561,-0.001550226,-0.133247808,-2.991731449,0.009818652,0.021472321,-0.022248849,0.097210981,0.113765121
324.9961243,-0.029390113,-0.004501275,-0.127813622,-2.992975153,0.009700127,0.02145981,-0.166234225,0.038619965,-0.132937551
324.9961243,-0.01436589,-0.007315171,-0.138978124,-2.994269145,0.009527057,0.021549966,-0.159240291,0.07168445,0.062313676
325.1763611,-0.012996758,-0.010637198,-0.117461652,-2.995439526,0.009327097,0.021761878,-0.163404107,0.064023033,-0.145452738
325.3507385,0.016796025,-0.012222578,-0.136074215,-2.996723072,0.009120249,0.022189685,0.046931803,0.148435637,0.192094684
325.3507385,0.010217218,-0.018160095,-0.118030496,-2.997922445,0.008860646,0.022646035,-0.212680697,0.129101783,-0.12009275
325.3507385,0.029525135,-0.015268701,-0.132989213,-2.999189054,0.008624516,0.023207956,-0.046489652,0.080515683,0.124876261
325.3507385,0.039963927,-0.036132436,-0.119269669,-3.000396228,0.008267514,0.023838404,-0.151356816,0.068619259,-0.211805463
325.5281067,0.019016035,-0.032719329,-0.134768203,-3.001662815,0.007904299,0.024379786,-0.087928593,0.100319587,0.132254839
325.5281067,0.023799872,-0.032940373,-0.120241456,-3.002849279,0.007537676,0.024890834,-0.19148916,0.051240038,-0.170397758
325.7045898,0.001187504,-0.015496136,-0.135202557,-3.004100254,0.007246651,0.025262324,-0.097615652,0.020834886,0.059941709
325.7045898,0.033857834,-0.042550921,-0.112343319,-3.005230413,0.006829567,0.025752669,-0.202254876,0.047204569,-0.139439166
325.7045898,-0.028142156,-0.015228754,-0.136243865,-3.006451827,0.006573649,0.025908834,-0.124636658,0.037610509,0.063073158
325.870636,0.013320599,-0.053665094,-0.107119799,-3.007514584,0.006139559,0.026313532,-0.209346175,0.075414851,-0.199202776
325.870636,-0.023605194,-0.015037805,-0.127110288,-3.008676426,0.005905626,0.026531714,-0.097417668,0.115306079,0.15868777
326.0239868,0.017965153,-0.039739955,-0.097695403,-3.009677089,0.005552717,0.026901992,-0.259875685,0.049575593,-0.119396269
326.0239868,0.006537794,-0.006378004,-0.123291045,-3.010796555,0.005383937,0.027237688,-0.088319987,0.126175001,0.176539779
326.0239868,0.016079368,-0.031944618,-0.103647567,-3.011817811,0.005121021,0.027665561,-0.253965616,0.086014852,-0.157058239
326.1772461,-0.010848653,0.001880991,-0.118866198,-3.012889369,0.004983988,0.028071369,-0.129301429,0.100169167,0.071996093
326.1772461,0.044095557,-0.036167324,-0.091879323,-3.013856046,0.004674548,0.028693349,-0.068994097,0.116965964,-0.051860452
326.3256226,-0.013317403,0.014112091,-0.11362084,-3.014945933,0.004597435,0.028985484,-0.192665666,0.055887483,0.032558382
326.7631531,0.079113461,-0.046867106,-0.090453997,-3.015904252,0.00422932,0.029764541,-0.104406536,0.116390049,-0.132578254
326.9191895,-0.046474826,0.018125474,-0.119364209,-3.016973277,0.004194078,0.029999457,-0.158417866,0.054628685,0.03944242
326.9191895,0.065723889,-0.051080227,-0.088765286,-3.017910688,0.003809794,0.030721656,-0.071744755,0.053734001,-0.096076012
326.9191895,-0.025019333,0.023677632,-0.108231395,-3.018967884,0.003792251,0.030939829,-0.113932982,0.058072202,0.036958694
326.9191895,0.059829246,-0.036105275,-0.089851327,-3.019938489,0.003498919,0.031537148,-0.158912197,0.06855765,-0.093353689
326.9191895,-0.033054091,0.021249628,-0.117272831,-3.02100887,0.003482117,0.031709322,-0.157842502,0.051762167,-0.034780622
326.9191895,0.02401532,-0.024505876,-0.101869904,-3.022017637,0.003262952,0.032132109,0.011016995,0.097274974,-0.025546551
326.9191895,-0.037098631,0.013085708,-0.114378773,-3.023106604,0.003201727,0.032242594,-0.228042215,0.030094277,-0.036856711
326.9191895,0.017673269,-0.013729927,-0.110209592,-3.024203627,0.003001662,0.032474568,-0.002652774,0.098777339,0.024980307
326.9191895,-0.030538468,0.000132625,-0.114941768,-3.024203627,0.003001662,0.032474568,-0.002652774,0.098777339,0.024980307
326.9191895,-0.020243486,-0.008945558,-0.121002324,-3.026457877,0.002672668,0.032525161,0.029658869,0.066006303,0.102890968
326.9191895,-0.058652129,-0.00519343,-0.117697872,-3.026457877,0.002672668,0.032525161,0.029658869,0.066006303,0.102890968
326.9191895,-0.020740965,-0.020236827,-0.119497903,-3.027611646,0.002527365,0.03229948,-0.306468934,-0.013839893,-0.158774316
327.0821838,-0.06733004,-0.008984706,-0.115429394,-3.028753412,0.002284552,0.032323396,-0.02189368,0.094078928,0.083168864
327.0821838,-0.06733004,-0.008984706,-0.115429394,-3.029898293,0.002165028,0.032076607,-0.245284826,-0.028574038,0.038163662
327.2518311,-0.040440101,0.001627191,-0.130610734,-3.031117707,0.002078161,0.031916333,-0.145710617,0.05509736,0.075858176
327.2518311,-0.016374446,-0.012472648,-0.114123113,-3.032263265,0.001987483,0.031891109,-0.261067867,0.045275975,-0.009986758
327.2518311,-0.084051497,0.020857878,-0.135535464,-3.033508096,0.002075593,0.031590726,-0.067384697,0.10684976,0.174638689
327.4219055,-0.021740716,0.000794954,-0.112379275,-3.034656825,0.002091152,0.031569041,-0.229738533,0.059846252,0.008425355
327.5958252,-0.058546934,0.048060469,-0.136218831,-3.035929613,0.002350651,0.031332819,-0.138598084,0.089333981,0.136255085
327.5958252,-0.01498401,0.015027152,-0.122042283,-3.037126326,0.002502526,0.031300378,-0.199510559,0.046088621,-0.03258276
327.5958252,-0.081503645,0.045013014,-0.133101061,-3.038358154,0.002839001,0.030947606,-0.092639066,0.045232043,0.108479559
327.5958252,-0.052505553,0.030866303,-0.121567175,-3.039535198,0.003138872,0.030664483,-0.194608495,0.023372784,-0.013750792
327.7684631,-0.063750215,0.051554006,-0.125200793,-3.040727482,0.003519125,0.030337654,-0.182812557,0.03705328,0.016088903
327.7684631,-0.073227875,0.053929809,-0.121906199,-3.04189396,0.003917837,0.029910382,-0.1510766,0.00851899,0.059145331
327.9326782,-0.035058387,0.040812679,-0.114925787,-3.043009245,0.004286153,0.029679856,-0.170472935,0.067538165,-0.086128235
327.9326782,-0.090300605,0.070030749,-0.122105137,-3.044152933,0.004776327,0.029184214,-0.052830011,0.08477284,0.124211311
327.9326782,-0.033203226,0.034021351,-0.116635002,-3.045268076,0.005137825,0.028990389,-0.247161537,0.098204963,-0.183066368
328.0927124,-0.072203353,0.07092797,-0.115384914,-3.046367512,0.00563187,0.02869951,-0.118368298,0.108259305,0.084090233
328.0927124,-0.031435154,0.051454667,-0.111090302,-3.047471293,0.006085176,0.028508593,-0.134385958,0.0876825,-0.037748337
328.2500916,-0.057547715,0.067485303,-0.110483371,-3.048554413,0.006549617,0.028265,-0.171593979,0.103399396,-0.005166888
328.2500916,-0.029671077,0.050812848,-0.109691344,-3.049624343,0.006953304,0.028144367,-0.144150719,0.066688076,-0.036980748
328.3994446,-0.043143742,0.050719105,-0.111045562,-3.050672305,0.00733293,0.028053672,-0.198577285,0.059776627,-0.075112641
328.3994446,-0.017491642,0.034001108,-0.104648381,-3.051674839,0.007602094,0.028102003,-0.057840191,0.07577043,0.019091785
328.3994446,-0.050784618,0.052825399,-0.10369657,-3.052667659,0.007986095,0.027985931,-0.16273196,0.113267176,0.065463483
328.5411987,0.018138791,0.037216876,-0.101012371,-3.053636422,0.008228073,0.028251666,-0.149180129,0.151085004,-0.032492161
328.5411987,-0.020616595,0.04544631,-0.098018445,-3.054592598,0.00853713,0.028358854,-0.101332664,0.1360403,0.043628335
328.5411987,-0.001720668,0.039552204,-0.098983839,-3.055551667,0.008784584,0.028614109,-0.126513109,0.135212392,0.00855422
328.6782837,0.001026649,0.035083152,-0.095911346,-3.056510652,0.009036153,0.028822009,-0.140085742,0.103178635,-0.046873927
328.6782837,-0.009236375,0.051348142,-0.098308459,-3.057462463,0.009342169,0.029043094,-0.152568445,0.124655396,-0.037468493
328.8144836,0.00749813,0.022257369,-0.098708466,-3.058412347,0.00956933,0.029305757,-0.043146037,0.062937066,-0.08709985
328.8144836,-0.055293083,0.040615603,-0.098017909,-3.059352916,0.009889212,0.029327109,-0.176171839,0.025772754,0.006509066
328.8144836,0.013742977,0.028635906,-0.093350455,-3.060258131,0.010113345,0.029617876,-0.14932695,0.055681057,-0.144029737
328.9446716,-0.017231451,0.042164233,-0.085719697,-3.061124956,0.010408741,0.029667951,-0.142252564,0.090887427,0.039422154
329.0726318,-0.013767211,0.044289432,-0.100094378,-3.062057354,0.01072669,0.029756653,-0.067985751,0.133410901,-0.022702336
329.0726318,-0.010391122,0.027143205,-0.093785882,-3.062939887,0.010985808,0.02991844,-0.21445471,0.077588312,-0.084172428
329.0726318,-0.033338781,0.047634896,-0.094528101,-3.063822499,0.011299517,0.030035501,-0.109025203,0.093467802,0.000598431
329.0726318,-0.002337723,0.023554062,-0.096050367,-3.064759911,0.01152208,0.030145515,-0.077646926,0.065532245,-0.043810487
329.2038574,-0.031718247,0.03660861,-0.093809582,-3.06569963,0.011794996,0.030189955,-0.215874732,0.114069156,-0.012870193
329.2038574,-0.002288987,0.034811512,-0.096593648,-3.066629497,0.011989725,0.030334155,-0.114415489,0.032701015,0.022477746
329.3403015,-0.029324865,0.021025389,-0.108224742,-3.067624031,0.012197867,0.030369643,-0.114623763,0.03273654,0.02247411
329.3403015,-0.069397718,0.040485907,-0.103953831,-3.068593714,0.01241249,0.030140285,-0.209076896,0.058950488,-0.101072013
329.3403015,-0.004268248,0.01914653,-0.104615621,-3.06957695,0.012538917,0.030169003,-0.161733314,0.066150859,0.063979864
329.4797058,-0.042840675,0.026136529,-0.099414736,-3.07054469,0.012637057,0.030091386,-0.102551155,0.071902044,0.055283487
329.4797058,-0.019930299,0.01878514,-0.10727825,-3.071572143,0.012718714,0.030019604,-0.155260459,0.08673805,0.070100904
329.6237793,-0.031992286,-0.002539058,-0.10062594,-3.072572169,0.012608688,0.029941603,-0.099791497,0.10672529,-0.003290176
329.6237793,-0.055425175,0.013434316,-0.109547265,-3.073608923,0.012579212,0.029770348,-0.210876569,0.047227725,-0.020069361
329.6237793,-0.011360246,-0.02521907,-0.108104102,-3.074656843,0.01235129,0.029766078,-0.017975762,0.053403269,0.076537013
329.7750244,-0.092145376,0.007328753,-0.117767915,-3.075774593,0.012222999,0.029296338,-0.150049701,0.071075857,-0.057434916
329.7750244,-0.036552951,-0.018458104,-0.112254903,-3.076849197,0.011929829,0.028975796,-0.202750206,0.016067561,0.017132401
329.9288635,-0.07981547,-0.011093664,-0.113886088,-3.077920622,0.011634016,0.028520663,-0.073746443,0.025453975,0.026441574
329.9288635,-0.06176563,-0.015622635,-0.118772723,-3.079044479,0.011358358,0.028120998,-0.198989496,0.085906036,0.065304995
330.085907,-0.052565206,-0.019057315,-0.111313738,-3.080131273,0.011054318,0.02776135,-0.130173385,0.090215281,0.039286971
330.085907,-0.078030884,0.004227235,-0.110651679,-3.081196763,0.010899928,0.027286786,-0.138396084,0.085467845,-0.013493717
330.085907,-0.029089974,-0.019023493,-0.117951937,-3.082288713,0.01061378,0.027094492,-0.227892488,0.076242194,0.074542582
330.2406616,-0.08943481,0.011359714,-0.116160691,-3.083386721,0.010561712,0.02671993,-0.163295805,0.148041368,-0.046937287
330.2406616,-0.025437983,0.009669938,-0.11532446,-3.084499005,0.010477239,0.026603807,-0.11612267,0.126868024,0.102633357
330.2406616,-0.046138201,0.017258883,-0.110236757,-3.08559814,0.010459993,0.026348568,-0.181565687,0.058665171,-0.053762257
330.3981934,-0.045855906,0.020178238,-0.107897438,-3.086684417,0.010474719,0.026201145,-0.123215601,0.047775429,-0.099260271
330.3981934,-0.010221745,-0.009114136,-0.112420015,-3.087764115,0.01031307,0.026241494,-0.132590547,0.080317035,0.063704252
330.5502014,-0.070001453,0.013454024,-0.107815415,-3.088818722,0.010264634,0.026067371,-0.200428471,0.099277273,-0.128337801
330.5502014,0.00964091,0.001804558,-0.101230212,-3.08981723,0.010197579,0.026212255,-0.169462264,0.031566452,0.12896806
330.5502014,-0.029601302,0.007449394,-0.106271848,-3.090820745,0.010140814,0.026281145,-0.162020192,0.120853543,-0.056686878
330.6921997,-0.028165592,0.031561654,-0.102676846,-3.091816789,0.010232635,0.026315746,-0.142000988,0.096107893,0.117749751
330.8309326,0.007559916,0.018975822,-0.099767342,-3.092784609,0.010379935,0.026339027,-0.186673552,0.102997646,-0.045262039
330.8309326,-0.055322912,0.03056803,-0.103149824,-3.093768846,0.010536682,0.026268888,-0.115648195,0.092597254,-0.133610189
330.8309326,-0.030242324,0.027633226,-0.102893889,-3.094730871,0.010723787,0.026225701,-0.221212655,0.01642793,-0.007909179
330.8309326,-0.027220435,0.007825432,-0.103953294,-3.095690648,0.010783367,0.026169193,-0.07541354,0.030714635,-0.103321552
330.9651489,-0.080237046,0.053408895,-0.096365415,-3.096624311,0.010975063,0.025810015,-0.2146741,-0.03447945,-0.048184276
330.9651489,0.015709987,0.010151704,-0.094817325,-3.097516452,0.011042232,0.025810497,-0.196919054,0.020528972,0.038057625
331.0834351,-0.106643356,0.029815154,-0.092718221,-3.098367514,0.011254948,0.025349843,-0.100101441,0.073031157,-0.056796789
331.0834351,-0.069380142,0.044874266,-0.097600058,-3.099253739,0.011510499,0.025049013,-0.238968134,0.078665733,-0.044905543
331.0834351,0.013346964,0.01668071,-0.087774858,-3.100108126,0.011639151,0.025086703,-0.106772661,0.131849825,-0.078614652
331.1986694,-0.073437735,0.043713659,-0.081732944,-3.100938795,0.011875009,0.024833615,-0.102721073,0.12762922,-0.135801017
331.1986694,0.005991314,0.016246615,-0.083013929,-3.10176303,0.01193868,0.02494526,-0.169587746,0.065591924,0.005369723
331.3146057,-0.049552906,0.02080062,-0.103054211,-3.102666325,0.012099683,0.024849549,-0.122477189,0.093724892,-0.141602457
331.3146057,-0.061976552,0.013145629,-0.083432309,-3.103465229,0.012114854,0.024794206,-0.166269854,-0.030537045,-0.042815864
331.3146057,0.001001881,-0.002703375,-0.091110736,-3.104307586,0.01205768,0.024842618,-0.085966647,0.036817927,0.063644171
331.4151001,-0.072613753,0.018602978,-0.084401965,-3.105109729,0.012086281,0.024617812,-0.244625717,0.044527493,-0.231806517
331.4151001,-0.003490605,0.004892227,-0.07379619,-3.105839583,0.012017849,0.024743374,-0.054768361,0.085928194,0.084856868
331.5186768,-0.050678357,0.002306031,-0.092867889,-3.106682431,0.011983992,0.024538875,-0.047013596,0.082610726,-0.12227577
331.5186768,-0.075709142,-0.011308048,-0.084087983,-3.107521673,0.011787775,0.024310295,-0.143588513,0.114425391,-0.168700337
331.6333313,-0.02481214,-0.005853096,-0.083637908,-3.108345245,0.011628159,0.024170771,-0.127025604,0.056897439,-0.058007836
331.6333313,-0.030492662,-0.041423872,-0.087336503,-3.109182813,0.011252725,0.024050828,-0.005098373,0.05557194,-0.143220961
331.6333313,-0.109469235,-0.013717677,-0.094160587,-3.110055399,0.010929414,0.023594795,-0.202284664,-0.020598631,0.0045138
331.7501526,-0.002125202,-0.055729307,-0.090382628,-3.110883243,0.010416918,0.023567944,-0.244343743,0.021931253,-0.068218708
331.7501526,-0.080479398,-0.039309323,-0.086698942,-3.111688849,0.009977178,0.023297983,-0.047675654,0.084664583,0.003691554
331.7501526,-0.041199103,-0.030220486,-0.080579795,-3.112473671,0.009512668,0.023152656,-0.16607672,0.024658892,0.087470174
331.8474426,-0.01317599,-0.042250782,-0.097361974,-3.11334171,0.009003233,0.023066947,-0.183907911,0.129736677,-0.086473286
331.8474426,-0.073337063,-0.035395276,-0.080360085,-3.114140987,0.008502722,0.022903821,-0.101772457,0.095424227,-0.133584321
331.9572754,-0.008237956,-0.058395933,-0.086334623,-3.114983347,0.007888612,0.022947356,-0.091651544,0.112588167,0.075297296
331.9572754,-0.01718165,-0.065177672,-0.093036197,-3.115850642,0.007262789,0.022895948,-0.218390271,0.098315515,-0.09446609
331.9572754,-0.097573698,-0.035950277,-0.099760413,-3.116738369,0.006694369,0.022641532,-0.161928415,0.046074159,-0.040516496
331.9572754,0.00687282,-0.069171615,-0.085390531,-3.117553093,0.006032093,0.022778425,-0.156367421,0.038993772,-0.020755231
332.1775818,-0.060399961,-0.042377818,-0.091902494,-3.117553093,0.006032093,0.022778425,-0.156367421,0.038993772,-0.020755231
332.1775818,-0.05571546,-0.039867789,-0.082320176,-3.119170044,0.004954415,0.022357853,-0.114441,0.034330864,-0.021029711
332.1775818,-0.018570755,-0.045550175,-0.092675872,-3.119170044,0.004954415,0.022357853,-0.114441,0.034330864,-0.021029711
332.1775818,-0.029121401,-0.055910137,-0.088176727,-3.120811095,0.003793909,0.022089913,-0.115095198,0.189137727,-0.017951667
332.1775818,-0.109529421,-0.036798228,-0.096917488,-3.120811095,0.003793909,0.022089913,-0.115095198,0.189137727,-0.017951667
332.2766724,-0.109529421,-0.036798228,-0.096917488,-3.121682816,0.003272817,0.021688959,-0.120570339,0.10511823,-0.001629412
332.2766724,0.004835768,-0.047992561,-0.091091558,-3.122553032,0.002632329,0.021684571,-0.097727686,0.102794491,0.061162531
332.3990479,-0.071196415,-0.04596616,-0.090975977,-3.12345,0.002077721,0.021347342,-0.185627744,0.081430316,0.013792515
332.3990479,-0.042645466,-0.043203399,-0.084201165,-3.124282749,0.001493387,0.021299178,-0.22149609,0.054328278,0.132828414
332.3990479,0.002108957,-0.020930583,-0.096016541,-3.125156048,0.001090296,0.021336845,-0.16019477,0.068785541,0.140335441
332.5105286,-0.035687424,-0.03159814,-0.084494911,-3.125992782,0.000737299,0.021386269,-0.16347301,0.156450987,0.080505013
332.5105286,-0.040437706,0.004762797,-0.088227861,-3.126846158,0.000535101,0.021490565,-0.175416619,0.134994715,0.15759033
332.6209717,0.061733138,0.012329903,-0.08024317,-3.127683809,0.00040987,0.021897023,-0.264158428,0.180033535,0.031864405
332.6209717,0.002713229,0.007931426,-0.093098253,-3.128575725,0.000366148,0.02225694,-0.149261773,0.235218629,0.089626193
332.7339783,0.001920672,0.013276923,-0.091589302,-3.129431312,0.000414617,0.022752056,-0.151629612,0.098278306,0.119659603
332.7339783,0.025688585,0.018354505,-0.097498059,-3.130350625,0.000507979,0.023230951,-0.14374271,0.073550135,0.088184893
332.7339783,0.039113846,0.019473566,-0.073125608,-3.131132229,0.000591701,0.0238659,-0.364163429,0.063794442,-0.00037688
332.8440857,0.022383602,0.063216522,-0.090992488,-3.131987986,0.000928959,0.024401291,-0.095839486,0.110045671,0.144659996
332.8440857,0.049864229,0.03707147,-0.0823998,-3.13281048,0.001186616,0.024981209,-0.230039015,0.094024554,-0.039818108
332.9532166,0.008535697,0.047457531,-0.087729849,-3.133644805,0.001572808,0.025464327,-0.213656127,0.150599405,0.038904488
332.9532166,-0.024329308,0.061084658,-0.094894022,-3.134511032,0.00203606,0.025741632,-0.123268947,0.095823243,-0.011365891
332.9532166,0.030885478,0.063063391,-0.091332309,-3.13539018,0.002523331,0.026091489,-0.185768336,0.140942693,-0.095802963
333.0655518,-0.001229581,0.064364873,-0.085052043,-3.136234037,0.003024091,0.026288877,-0.221410513,0.07006482,-0.079177439
333.0655518,-0.017790448,0.065577142,-0.090206325,-3.137071992,0.003521969,0.026500368,-0.161972284,-0.025563957,-0.078024983
333.0655518,-0.011351458,0.062247127,-0.084182523,-3.137881246,0.003961493,0.026662734,-0.210401058,0.016194006,0.014132142
333.1601563,-0.013987987,0.065570757,-0.083334304,-3.138679059,0.004557741,0.02672147,-0.132491335,0.072572984,0.016218483
333.1601563,-0.04797072,0.064374998,-0.088420406,-3.139492585,0.005100904,0.026725456,-0.220696703,0.034460519,-0.028675616
333.265564,-0.029413549,0.082114846,-0.085880019,-3.140321355,0.005684336,0.026659202,-0.113889277,0.119156778,0.004327774
333.265564,-0.010472881,0.075052671,-0.091748826,-3.141211613,0.006277336,0.026569528,-0.112453379,0.127032116,-0.097373247
333.265564,-0.04995371,0.075817265,-0.094006389,3.141092726,0.006824205,0.026395138,-0.150796756,0.085216343,-0.059728742
333.3803711,-0.043025233,0.072537318,-0.093696401,3.140210383,0.007364739,0.026321027,-0.178177968,0.018323928,-0.07131207
333.4947205,0.005260009,0.05845825,-0.085471757,3.139356806,0.007891902,0.026487216,-0.158487648,0.007107206,-0.051499307
333.4947205,-0.066964656,0.063962206,-0.093331814,3.138452924,0.008446528,0.026310547,-0.092285573,-0.060131997,0.108550251
333.4947205,-0.050608583,0.081746526,-0.089289933,3.137592695,0.009089775,0.026146339,-0.24254182,0.065832794,-0.04985255
333.4947205,0.032357674,0.04806127,-0.08406987,3.136769627,0.009580129,0.02633396,-0.1243039,0.106990442,-0.13323611
333.604248,-0.119900309,0.063992031,-0.111857295,3.13579597,0.010156641,0.025876535,0.035061624,0.082530528,0.152262092
333.604248,-0.063480973,0.05634743,-0.098954275,3.134876513,0.010619991,0.025680929,-0.256417781,0.079511873,-0.183507323
333.7321472,0.008791095,0.055283763,-0.091042824,3.133968294,0.011053615,0.025640637,-0.175903916,0.124408692,-0.156838596
333.7321472,-0.064091101,0.050551057,-0.096459158,3.133045159,0.011394201,0.02534458,-0.074545033,-0.040774111,0.014307678
333.7321472,-0.029944317,0.023522902,-0.092984267,3.132166341,0.011539576,0.025374517,-0.190108001,0.078900024,0.149421871
333.8492737,-0.030517695,0.034249049,-0.084645115,3.131314227,0.011793528,0.025363124,-0.19036217,0.078888625,0.149419188
333.8492737,-0.02360546,0.035926308,-0.090177298,3.130420105,0.011950335,0.025333091,-0.215574041,0.075043872,-0.065059483
333.973999,-0.031276431,0.002345446,-0.091600753,3.129563618,0.011999406,0.025392431,-0.094300508,0.183776364,-0.019086838
333.973999,-0.028687304,0.022897858,-0.092993587,3.128699107,0.012030879,0.025447799,-0.106508508,0.130334467,-0.057800174
333.973999,-0.003192864,-0.0013425,-0.092101432,3.127799387,0.011878673,0.025529059,-0.140734196,0.091124415,-0.066696286
334.0978699,-0.00799987,-0.009662215,-0.090959735,3.126922332,0.011641442,0.025710377,-0.16608572,0.037350822,-0.009401381
334.0978699,-0.014749385,-0.020924723,-0.084134586,3.126097033,0.011297415,0.025874094,-0.131790549,0.092370033,0.019055963
334.2140198,-0.0053178,-0.023824906,-0.083683446,3.125288296,0.010903927,0.026009656,-0.161883771,0.032462381,0.011778355
334.2140198,-0.00558891,-0.04073092,-0.080584325,3.124516555,0.010482625,0.026182929,-0.157952547,0.071591496,0.047422886
334.3262329,-0.084574275,-0.010391388,-0.094006121,3.123672995,0.010191965,0.025967628,-0.21733883,0.148539707,-0.192223012
334.3262329,-0.002321744,-0.036622994,-0.07355012,3.122923222,0.009754645,0.025969882,-0.046658836,0.109448947,-0.035846651
334.3262329,-0.036517531,-0.033772878,-0.085930623,3.122106771,0.009307445,0.025783815,-0.14427954,0.120111719,-0.046884954
334.4391479,-0.072820142,-0.02837971,-0.092411421,3.121283349,0.008863935,0.025496684,-0.238333404,0.04087536,-0.133253515
334.4391479,-0.038933549,-0.049053296,-0.084601969,3.120481998,0.008313248,0.025347513,-0.044255063,0.014679307,0.051538944
334.4391479,-0.066233352,-0.03633111,-0.082191013,3.119665018,0.007836063,0.024954434,-0.207992628,0.030444933,-0.034781516
334.5496826,-0.045943789,-0.027559189,-0.07820639,3.118898691,0.007392447,0.024654162,-0.094923556,0.055260353,0.031711817
334.5496826,-0.075247616,-0.022940204,-0.094992824,3.118051396,0.007035502,0.024221847,-0.194786102,0.080752321,-0.056302965
334.6657104,-0.074122965,-0.040950894,-0.08722838,3.117208196,0.006597708,0.023855698,-0.125698671,0.168657929,-0.063935816
334.6657104,-0.0800208,-0.01720402,-0.088627607,3.116325386,0.006276392,0.023413082,-0.088115171,0.116182432,-0.109516561
334.6657104,-0.021507954,-0.033682063,-0.094607197,3.11541953,0.005858117,0.023225082,-0.138370976,0.060986318,-0.016675115
334.7939148,-0.065843463,-0.034939077,-0.099991843,3.114494716,0.005421831,0.02298905,-0.189615831,0.055272162,-0.050968945
334.9214172,-0.061499581,-0.031845547,-0.103764743,3.113554007,0.005055736,0.022824834,-0.200266257,0.02903052,-0.025694728
334.9214172,-0.021988923,-0.035381161,-0.087788709,3.112700167,0.004652687,0.022784533,-0.113574378,0.014341742,0.02209866
334.9214172,-0.067066386,-0.003128149,-0.105411641,3.1117434,0.004425442,0.022431191,-0.189625636,0.03834109,-0.091509223
334.9214172,-0.04705406,-0.034279943,-0.099558279,3.110806983,0.004048692,0.022179174,-0.095300183,0.17125228,-0.153071225
335.0527344,-0.066934027,-0.021407021,-0.099027514,3.109876866,0.003745473,0.021818793,-0.216777101,0.026909608,-0.093873262
335.0527344,-0.08237876,-0.021462414,-0.092273206,3.108937952,0.003358381,0.021372724,-0.133503914,0.023563931,-0.171361625
335.1883545,-0.031439416,-0.018133463,-0.095604822,3.107968625,0.002980775,0.021131917,-0.060402565,0.056129284,0.145188272
335.1883545,-0.068862684,-0.036052544,-0.094185621,3.107069883,0.002744517,0.020715813,-0.241745681,0.095294058,0.062815487
335.1883545,-0.162341505,-0.016701216,-0.068527132,3.1063612,0.002599783,0.019994979,-0.25774464,-0.002656508,-0.115483701
335.3023682,-0.000122505,-0.04025368,-0.103244364,3.105432073,0.002301094,0.019946644,0.025101341,0.196101874,0.153042197
335.3023682,-0.08531516,0.032181371,-0.069875218,3.104750104,0.002217132,0.019483551,-0.433554858,0.072179437,-0.112924397
335.4182739,0.003583017,0.002029861,-0.089588203,3.10390054,0.002053091,0.019487521,0.084767304,0.266427815,0.259756505
335.4182739,-0.105998874,0.034821898,-0.102274969,3.1028411,0.002187971,0.018992056,-0.228356019,0.112260558,-0.088744998
335.4182739,0.024439296,0.017292172,-0.088375933,3.101940284,0.002238005,0.019221889,-0.271420628,0.127093285,0.214427412
335.556366,-0.058258511,0.024477912,-0.099913545,3.101004462,0.002452045,0.019034477,-0.141446903,0.028257618,0.051665008
335.556366,-0.043439087,0.004946289,-0.104339987,3.100000581,0.002569374,0.019041468,0.004218118,0.179387659,0.010542095
335.6894531,0.00379101,0.018954782,-0.080595508,3.099140812,0.002743966,0.019166625,-0.350799799,0.168129891,0.053111255
335.6894531,-0.017352626,0.057881143,-0.076295301,3.09835714,0.003065822,0.019176218,-0.277330458,0.099673316,0.069299757
335.8264771,0.001593902,0.045191448,-0.123944312,3.097245839,0.003403226,0.019270845,0.060603879,0.20804441,0.183722496
335.8264771,-0.105811387,0.057735734,-0.104667291,3.096191996,0.003856952,0.018825206,-0.298050433,0.112261385,-0.14212209
335.8264771,-0.014661767,0.043362919,-0.091917403,3.09520729,0.004213712,0.01876344,-0.125937462,-0.017118681,-0.001115918
335.9667969,-0.046145923,0.042887278,-0.099662945,3.094247082,0.004556398,0.018632953,-0.225310057,0.033837121,-0.05610764
335.9667969,-0.05196866,0.022355905,-0.11301896,3.09328004,0.004760427,0.018659102,-0.146962047,0.127720118,0.167661071
335.9667969,-0.029311549,0.039064046,-0.09752389,3.092324447,0.005220895,0.018518693,-0.059944365,0.222382411,0.171796501
336.1007996,-0.047301203,0.053542588,-0.083248019,3.091458666,0.005691663,0.018439875,-0.319357276,0.218382001,-0.134921551
336.1007996,-0.025411617,0.081500448,-0.131799042,3.090404764,0.006278254,0.018399539,-0.09197817,0.098850042,0.22429812
336.2355042,-0.051225103,0.070066169,-0.11123278,3.089456754,0.006807782,0.018275597,-0.238931596,0.118425064,-0.301200509
336.2355042,0.025654497,0.027927505,-0.098705269,3.088519399,0.007202589,0.01865008,0.113288596,0.103007093,0.241712749
336.2355042,-0.107782386,0.076173067,-0.040477119,3.087944752,0.007824336,0.018424988,-0.444874704,-0.081544407,-0.208330452
336.3404846,0.063807473,0.047872186,-0.079631448,3.087152672,0.008215414,0.019062737,0.009125394,0.135433123,0.246991932
336.3404846,-0.073685408,0.120489664,-0.089533344,3.086219514,0.009133051,0.018682432,-0.233767107,0.101238944,0.017865181
336.4725647,0.010937869,0.051569983,-0.084203824,3.085310212,0.009718298,0.018959702,-0.033898171,0.254134923,-0.103132486
336.4725647,-0.094082557,0.105440937,-0.103767142,3.084321348,0.010657524,0.018557268,-0.229113311,-0.023626953,0.090835214
336.4725647,-0.038415831,0.061584003,-0.105730958,3.083372743,0.011301913,0.018364965,-0.248145223,-0.020493042,-0.376743376
336.4725647,-0.019563848,0.076893181,-0.084991857,3.082533359,0.011883494,0.018447505,-0.044030696,0.07713902,0.092593431
336.6048279,-0.043844953,0.086662993,-0.093300916,3.081638458,0.0125723,0.018224849,-0.089672618,0.07723657,0.282408416
336.6048279,-0.044573061,0.071327977,-0.097616568,3.080709109,0.013224397,0.01805832,-0.289711982,0.072629556,-0.049216211
336.731842,-0.044573061,0.071327977,-0.097616568,3.080709109,0.013224397,0.01805832,-0.289711982,0.072629556,-0.049216211
336.731842,-0.086458191,0.097875163,-0.101182543,3.078915767,0.014543314,0.017717104,-0.246278226,0.085364759,-0.020297766
336.731842,-0.086458191,0.097875163,-0.101182543,3.078915767,0.014543314,0.017717104,-0.246278226,0.085364759,-0.020297766
336.8563538,0.041980471,0.02371252,-0.077408239,3.078114336,0.014801091,0.018183481,-0.089965686,0.292756051,-0.162140429
336.8563538,-0.031497471,0.067200877,-0.090409525,3.07722407,0.015281978,0.018365511,0.005454518,0.104141288,0.305195212
336.9802856,0.020501813,0.013357617,-0.097792871,3.076308923,0.015467658,0.018723092,-0.359980881,-0.063713655,-0.168233454
336.9802856,0.02109836,0.008236092,-0.077550985,3.075555891,0.015557408,0.019370263,-0.176568314,0.088896476,-0.047794342
336.9802856,0.02557114,0.044895303,-0.086393476,3.074737809,0.015853986,0.019794502,0.087539271,0.204540268,0.253477514
337.0914307,-0.013947507,0.032101478,-0.094107054,3.073854611,0.016088425,0.019905091,-0.249426305,0.141403288,-0.143119633
337.0914307,0.001132642,0.013012205,-0.094692685,3.072990616,0.016181153,0.020352367,-0.275443643,0.159688547,-0.1041134
337.2087097,0.041748513,-0.005914615,-0.080890588,3.072189244,0.016188971,0.021014997,-0.018416949,0.168255895,0.022108674
337.2087097,-0.042241462,0.022958312,-0.104055293,3.071264702,0.016266035,0.021139566,-0.032165915,0.027038423,0.076807559
337.3236389,0.042659048,0.010471549,-0.074039869,3.070514536,0.016162919,0.021653361,-0.381122589,0.015513547,-0.269438922
